{
  "resourceType": "Bundle",
  "title": "CDA converted to FHIR",
  "id": "cid:d9",
  "author": [
    {
      "name": "Lantana Consulting Group"
    }
  ],
  "category": [
    {
      "label": "Document",
      "scheme": "http://hl7.org/fhir/tag",
      "term": "http://hl7.org/fhir/tag/document"
    }
  ],
  "entry": [
    {
      "title": "Composition",
      "id": "cid:d9e3",
      "updated": "2014-08-26T00:00:00",
      "content": {
        "resourceType": "Composition",
        "extension": [
          {
            "url": "http://camara.lantanagroup.com/fhir/Profile/ProfileId",
            "valueCode": "http://www.lantanagroup.com/camara/fhir/CCD"
          }
        ],
        "language": "en",
        "text": {
          "div": "Community Health and Hospitals: Health Summary",
          "status": "generated"
        },
        "identifier": {
          "label": "Unknown ID type",
          "system": "urn:oid:2.16.840.1.113883.19.5.99999.1",
          "value": "TT988"
        },
        "date": "2012-09-15T00:00-04:00",
        "type": {
          "coding": [
            {
              "system": "http://loinc.org",
              "code": "34133-9",
              "display": "Summarization of Episode Note"
            }
          ]
        },
        "title": "Community Health and Hospitals: Health Summary",
        "status": "final",
        "confidentiality": {
          "system": "urn:oid:2.16.840.1.113883.5.25",
          "code": "N"
        },
        "subject": {},
        "author": [
          {}
        ],
        "attester": [
          {
            "mode": [
              "legal"
            ],
            "time": "2009-02-27T13:00:00+05:00",
            "party": {}
          },
          {
            "mode": [
              "professional"
            ],
            "time": "2009-02-27T13:00:00+05:00",
            "party": {}
          }
        ],
        "custodian": {
          "display": "Community Health and Hospitals",
          "reference": "cid:d9e371"
        },
        "event": {
          "code": [
            {
              "coding": [
                {
                  "system": "http://hl7.org/fhir/v3/ActClass",
                  "code": "PCPR"
                }
              ]
            }
          ],
          "period": {
            "start": "2012-09-08T00:00-04:00",
            "end": "2012-09-15T00:00-04:00"
          }
        },
        "section": [
          {
            "title": "ADVANCE DIRECTIVES",
            "code": {
              "coding": [
                {
                  "system": "http://loinc.org",
                  "code": "42348-3"
                }
              ]
            },
            "content": {
              "display": "ADVANCE DIRECTIVES",
              "reference": "cid:d9e621"
            }
          },
          {
            "title": "ALLERGIES, ADVERSE REACTIONS, ALERTS",
            "code": {
              "coding": [
                {
                  "system": "http://loinc.org",
                  "code": "48765-2"
                }
              ]
            },
            "content": {
              "display": "ALLERGIES, ADVERSE REACTIONS, ALERTS",
              "reference": "cid:d9e806"
            }
          },
          {
            "title": "ASSESSMENT",
            "code": {
              "coding": [
                {
                  "system": "http://loinc.org",
                  "code": "51848-0",
                  "display": "ASSESSMENT"
                }
              ]
            },
            "content": {
              "display": "ASSESSMENT",
              "reference": "cid:d9e1423"
            }
          },
          {
            "title": "ENCOUNTERS",
            "code": {
              "coding": [
                {
                  "system": "http://loinc.org",
                  "code": "46240-8",
                  "display": "History of encounters"
                }
              ]
            },
            "content": {
              "display": "ENCOUNTERS",
              "reference": "cid:d9e1461"
            }
          },
          {
            "title": "FAMILY HISTORY",
            "code": {
              "coding": [
                {
                  "system": "http://loinc.org",
                  "code": "10157-6"
                }
              ]
            },
            "content": {
              "display": "FAMILY HISTORY",
              "reference": "cid:d9e1627"
            }
          },
          {
            "title": "Functional Status",
            "code": {
              "coding": [
                {
                  "system": "http://loinc.org",
                  "code": "47420-5"
                }
              ]
            },
            "content": {
              "display": "Functional Status",
              "reference": "cid:d9e1818"
            }
          },
          {
            "title": "IMMUNIZATIONS",
            "code": {
              "coding": [
                {
                  "system": "http://loinc.org",
                  "code": "11369-6",
                  "display": "History of immunizations"
                }
              ]
            },
            "content": {
              "display": "IMMUNIZATIONS",
              "reference": "cid:d9e2298"
            }
          },
          {
            "title": "MEDICATIONS",
            "code": {
              "coding": [
                {
                  "system": "http://loinc.org",
                  "code": "10160-0",
                  "display": "HISTORY OF MEDICATION USE"
                }
              ]
            },
            "content": {
              "display": "MEDICATIONS",
              "reference": "cid:d9e3130"
            }
          },
          {
            "title": "PLAN OF CARE",
            "code": {
              "coding": [
                {
                  "system": "http://loinc.org",
                  "code": "18776-5",
                  "display": "Treatment plan"
                }
              ]
            },
            "content": {
              "display": "PLAN OF CARE",
              "reference": "cid:d9e3976"
            }
          },
          {
            "title": "PROBLEMS",
            "code": {
              "coding": [
                {
                  "system": "http://loinc.org",
                  "code": "11450-4",
                  "display": "PROBLEM LIST"
                }
              ]
            },
            "content": {
              "display": "PROBLEMS",
              "reference": "cid:d9e4114"
            }
          },
          {
            "title": "PROCEDURES",
            "code": {
              "coding": [
                {
                  "system": "http://loinc.org",
                  "code": "47519-4",
                  "display": "HISTORY OF PROCEDURES"
                }
              ]
            },
            "content": {
              "display": "PROCEDURES",
              "reference": "cid:d9e4410"
            }
          },
          {
            "title": "RESULTS",
            "code": {
              "coding": [
                {
                  "system": "http://loinc.org",
                  "code": "30954-2",
                  "display": "RESULTS"
                }
              ]
            },
            "content": {
              "display": "RESULTS",
              "reference": "cid:d9e4807"
            }
          },
          {
            "title": "SOCIAL HISTORY",
            "code": {
              "coding": [
                {
                  "system": "http://loinc.org",
                  "code": "29762-2",
                  "display": "Social History"
                }
              ]
            },
            "content": {
              "display": "SOCIAL HISTORY",
              "reference": "cid:d9e5142"
            }
          },
          {
            "title": "VITAL SIGNS",
            "code": {
              "coding": [
                {
                  "system": "http://loinc.org",
                  "code": "8716-3",
                  "display": "VITAL SIGNS"
                }
              ]
            },
            "content": {
              "display": "VITAL SIGNS",
              "reference": "cid:d9e5347"
            }
          }
        ]
      }
    },
    {
      "title": "Organization Community Health and Hospitals",
      "id": "cid:d9e190",
      "updated": "2014-08-26T00:00:00",
      "content": {
        "resourceType": "Organization",
        "extension": [
          {
            "url": "http://camara.lantanagroup.com/fhir/Profile/ProfileId",
            "valueCode": "http://www.lantanagroup.com/camara/fhir/us-realm-custodian"
          }
        ],
        "identifier": [
          {
            "label": "Unknown ID type",
            "system": "urn:oid:2.16.840.1.113883.4.6"
          }
        ],
        "name": "Community Health and Hospitals",
        "telecom": [
          {
            "system": "phone",
            "value": " 555-555-5000",
            "use": "work"
          }
        ],
        "address": [
          {
            "line": [
              "1001 Village Avenue"
            ],
            "city": "Portland",
            "state": "OR",
            "zip": "99123",
            "country": "US"
          }
        ]
      }
    },
    {
      "title": "Organization Community Health and Hospitals",
      "id": "cid:d9e579",
      "updated": "2014-08-26T00:00:00",
      "content": {
        "resourceType": "Organization",
        "extension": [
          {
            "url": "http://camara.lantanagroup.com/fhir/Profile/ProfileId",
            "valueCode": "http://www.lantanagroup.com/camara/fhir/us-realm-custodian"
          }
        ],
        "identifier": [
          {
            "label": "Unknown ID type",
            "system": "urn:oid:2.16.840.1.113883.19.5.9999.1393"
          }
        ],
        "name": "Community Health and Hospitals",
        "type": {
          "coding": [
            {
              "system": "http://hl7.org/fhir/organization-type",
              "code": "prov"
            }
          ]
        },
        "telecom": [
          {
            "system": "phone",
            "value": "+1-555-555-5000",
            "use": "home"
          }
        ],
        "address": [
          {
            "line": [
              "1001 Village Avenue"
            ],
            "city": "Portland",
            "state": "OR",
            "zip": "99123",
            "country": "US"
          }
        ]
      }
    },
    {
      "title": "Organization Good Health Clinic",
      "id": "cid:d9e2490",
      "updated": "2014-08-26T00:00:00",
      "content": {
        "resourceType": "Organization",
        "extension": [
          {
            "url": "http://camara.lantanagroup.com/fhir/Profile/ProfileId",
            "valueCode": "http://www.lantanagroup.com/camara/fhir/us-realm-custodian"
          }
        ],
        "identifier": [
          {
            "label": "Unknown ID type",
            "system": "urn:oid:2.16.840.1.113883.19.5.9999.1394"
          }
        ],
        "name": "Good Health Clinic",
        "type": {
          "coding": [
            {
              "system": "http://hl7.org/fhir/organization-type",
              "code": "prov"
            }
          ]
        },
        "telecom": [
          {
            "system": "phone",
            "value": "Unknown"
          }
        ]
      }
    },
    {
      "title": "Organization Good Health Clinic",
      "id": "cid:d9e2619",
      "updated": "2014-08-26T00:00:00",
      "content": {
        "resourceType": "Organization",
        "extension": [
          {
            "url": "http://camara.lantanagroup.com/fhir/Profile/ProfileId",
            "valueCode": "http://www.lantanagroup.com/camara/fhir/us-realm-custodian"
          }
        ],
        "identifier": [
          {
            "label": "Unknown ID type",
            "system": "urn:oid:2.16.840.1.113883.19.5.9999.1394"
          }
        ],
        "name": "Good Health Clinic",
        "type": {
          "coding": [
            {
              "system": "http://hl7.org/fhir/organization-type",
              "code": "prov"
            }
          ]
        },
        "telecom": [
          {
            "system": "phone",
            "value": "Unknown"
          }
        ]
      }
    },
    {
      "title": "Organization Good Health Clinic",
      "id": "cid:d9e2748",
      "updated": "2014-08-26T00:00:00",
      "content": {
        "resourceType": "Organization",
        "extension": [
          {
            "url": "http://camara.lantanagroup.com/fhir/Profile/ProfileId",
            "valueCode": "http://www.lantanagroup.com/camara/fhir/us-realm-custodian"
          }
        ],
        "identifier": [
          {
            "label": "Unknown ID type",
            "system": "urn:oid:2.16.840.1.113883.19.5.9999.1394"
          }
        ],
        "name": "Good Health Clinic",
        "type": {
          "coding": [
            {
              "system": "http://hl7.org/fhir/organization-type",
              "code": "prov"
            }
          ]
        },
        "telecom": [
          {
            "system": "phone",
            "value": "Unknown"
          }
        ]
      }
    },
    {
      "title": "Organization Good Health Clinic",
      "id": "cid:d9e2858",
      "updated": "2014-08-26T00:00:00",
      "content": {
        "resourceType": "Organization",
        "extension": [
          {
            "url": "http://camara.lantanagroup.com/fhir/Profile/ProfileId",
            "valueCode": "http://www.lantanagroup.com/camara/fhir/us-realm-custodian"
          }
        ],
        "identifier": [
          {
            "label": "Unknown ID type",
            "system": "urn:oid:2.16.840.1.113883.19.5.9999.1394"
          }
        ],
        "name": "Good Health Clinic",
        "type": {
          "coding": [
            {
              "system": "http://hl7.org/fhir/organization-type",
              "code": "prov"
            }
          ]
        },
        "telecom": [
          {
            "system": "phone",
            "value": "Unknown"
          }
        ]
      }
    },
    {
      "title": "Organization Community Health and Hospitals",
      "id": "cid:d9e3292",
      "updated": "2014-08-26T00:00:00",
      "content": {
        "resourceType": "Organization",
        "extension": [
          {
            "url": "http://camara.lantanagroup.com/fhir/Profile/ProfileId",
            "valueCode": "http://www.lantanagroup.com/camara/fhir/us-realm-custodian"
          }
        ],
        "identifier": [
          {
            "label": "Unknown ID type",
            "system": "urn:oid:2.16.840.1.113883.19.5.9999.1393"
          }
        ],
        "name": "Community Health and Hospitals",
        "type": {
          "coding": [
            {
              "system": "http://hl7.org/fhir/organization-type",
              "code": "prov"
            }
          ]
        },
        "telecom": [
          {
            "system": "phone",
            "value": "Unknown"
          }
        ]
      }
    },
    {
      "title": "Organization Community Health and Hospitals",
      "id": "cid:d9e3575",
      "updated": "2014-08-26T00:00:00",
      "content": {
        "resourceType": "Organization",
        "extension": [
          {
            "url": "http://camara.lantanagroup.com/fhir/Profile/ProfileId",
            "valueCode": "http://www.lantanagroup.com/camara/fhir/us-realm-custodian"
          }
        ],
        "identifier": [
          {
            "label": "Unknown ID type",
            "system": "urn:oid:2.16.840.1.113883.19.5.9999.1393"
          }
        ],
        "name": "Community Health and Hospitals",
        "type": {
          "coding": [
            {
              "system": "http://hl7.org/fhir/organization-type",
              "code": "prov"
            }
          ]
        },
        "telecom": [
          {
            "system": "phone",
            "value": "Unknown"
          }
        ]
      }
    },
    {
      "title": "Organization Good Health Insurance",
      "id": "cid:d9e3747",
      "updated": "2014-08-26T00:00:00",
      "content": {
        "resourceType": "Organization",
        "extension": [
          {
            "url": "http://camara.lantanagroup.com/fhir/Profile/ProfileId",
            "valueCode": "http://www.lantanagroup.com/camara/fhir/us-realm-custodian"
          }
        ],
        "name": "Good Health Insurance",
        "type": {
          "coding": [
            {
              "system": "http://hl7.org/fhir/organization-type",
              "code": "prov"
            }
          ]
        },
        "telecom": [
          {
            "system": "phone",
            "value": "(781)555-1515",
            "use": "work"
          }
        ],
        "address": [
          {
            "use": "work",
            "line": [
              "123 Insurance Road"
            ],
            "city": "Blue Bell",
            "state": "MA",
            "zip": "02368",
            "country": "US"
          }
        ]
      }
    },
    {
      "title": "Organization Community Health and Hospitals",
      "id": "cid:d9e4527",
      "updated": "2014-08-26T00:00:00",
      "content": {
        "resourceType": "Organization",
        "extension": [
          {
            "url": "http://camara.lantanagroup.com/fhir/Profile/ProfileId",
            "valueCode": "http://www.lantanagroup.com/camara/fhir/us-realm-custodian"
          }
        ],
        "identifier": [
          {
            "label": "Unknown ID type",
            "system": "urn:oid:2.16.840.1.113883.19.5.9999.1393"
          }
        ],
        "name": "Community Health and Hospitals",
        "type": {
          "coding": [
            {
              "system": "http://hl7.org/fhir/organization-type",
              "code": "prov"
            }
          ]
        },
        "telecom": [
          {
            "system": "phone",
            "value": "555-555-5000",
            "use": "work"
          }
        ],
        "address": [
          {
            "line": [
              "1001 Village Avenue"
            ],
            "city": "Portland",
            "state": "OR",
            "zip": "99123",
            "country": "US"
          }
        ]
      }
    },
    {
      "title": "Organization Community Health and Hospitals",
      "id": "cid:d9e4638",
      "updated": "2014-08-26T00:00:00",
      "content": {
        "resourceType": "Organization",
        "extension": [
          {
            "url": "http://camara.lantanagroup.com/fhir/Profile/ProfileId",
            "valueCode": "http://www.lantanagroup.com/camara/fhir/us-realm-custodian"
          }
        ],
        "identifier": [
          {
            "label": "Unknown ID type",
            "system": "urn:oid:2.16.840.1.113883.19.5"
          }
        ],
        "name": "Community Health and Hospitals",
        "type": {
          "coding": [
            {
              "system": "http://hl7.org/fhir/organization-type",
              "code": "prov"
            }
          ]
        },
        "telecom": [
          {
            "system": "phone",
            "value": "Unknown"
          }
        ]
      }
    },
    {
      "title": "Organization Community Health and Hospitals",
      "id": "cid:d9e4745",
      "updated": "2014-08-26T00:00:00",
      "content": {
        "resourceType": "Organization",
        "extension": [
          {
            "url": "http://camara.lantanagroup.com/fhir/Profile/ProfileId",
            "valueCode": "http://www.lantanagroup.com/camara/fhir/us-realm-custodian"
          }
        ],
        "identifier": [
          {
            "label": "Unknown ID type",
            "system": "urn:oid:2.16.840.1.113883.19.5"
          }
        ],
        "name": "Community Health and Hospitals",
        "type": {
          "coding": [
            {
              "system": "http://hl7.org/fhir/organization-type",
              "code": "prov"
            }
          ]
        },
        "telecom": [
          {
            "system": "phone",
            "value": "Unknown"
          }
        ]
      }
    },
    {
      "title": "Organization Community Health and Hospitals",
      "id": "cid:d9e371",
      "updated": "2014-08-26T00:00:00",
      "content": {
        "resourceType": "Organization",
        "extension": [
          {
            "url": "http://camara.lantanagroup.com/fhir/Profile/ProfileId",
            "valueCode": "http://www.lantanagroup.com/camara/fhir/us-realm-custodian"
          }
        ],
        "identifier": [
          {
            "label": "Unknown ID type",
            "system": "urn:oid:2.16.840.1.113883.4.6",
            "value": "99999999"
          }
        ],
        "name": "Community Health and Hospitals",
        "telecom": [
          {
            "system": "phone",
            "value": " 555-555-1002",
            "use": "work"
          }
        ],
        "address": [
          {
            "use": "work",
            "line": [
              "1002 Healthcare Drive"
            ],
            "city": "Portland",
            "state": "OR",
            "zip": "99123",
            "country": "US"
          }
        ]
      }
    },
    {
      "title": "Organization Community Health and Hospitals",
      "id": "cid:d9e417",
      "updated": "2014-08-26T00:00:00",
      "content": {
        "resourceType": "Organization",
        "extension": [
          {
            "url": "http://camara.lantanagroup.com/fhir/Profile/ProfileId",
            "valueCode": "http://www.lantanagroup.com/camara/fhir/us-realm-custodian"
          }
        ],
        "name": "Community Health and Hospitals"
      }
    },
    {
      "title": "Person",
      "id": "cid:d9e401",
      "updated": "2014-08-26T00:00:00",
      "content": {
        "resourceType": "Practitioner",
        "extension": [
          {
            "url": "http://camara.lantanagroup.com/fhir/Profile/ProfileId",
            "valueCode": "http://www.lantanagroup.com/camara/fhir/us-realm-author"
          }
        ],
        "text": {
          "div": "",
          "status": "generated"
        }
      }
    },
    {
      "title": "Person",
      "id": "cid:d9e405",
      "updated": "2014-08-26T00:00:00",
      "content": {
        "resourceType": "Practitioner",
        "extension": [
          {
            "url": "http://camara.lantanagroup.com/fhir/Profile/ProfileId",
            "valueCode": "http://www.lantanagroup.com/camara/fhir/us-realm-author"
          }
        ],
        "text": {
          "div": "Henry Seven",
          "status": "generated"
        },
        "name": {
          "text": "Seven, Henry",
          "family": [
            "Seven"
          ],
          "given": [
            "Henry"
          ]
        }
      }
    },
    {
      "title": "Person",
      "id": "cid:d9e142",
      "updated": "2014-08-26T00:00:00",
      "content": {
        "resourceType": "Practitioner",
        "extension": [
          {
            "url": "http://camara.lantanagroup.com/fhir/Profile/ProfileId",
            "valueCode": "http://www.lantanagroup.com/camara/fhir/us-realm-author"
          }
        ],
        "text": {
          "div": "Ralph Jones",
          "status": "generated"
        },
        "name": {
          "text": "Jones, Ralph",
          "family": [
            "Jones"
          ],
          "given": [
            "Ralph"
          ]
        }
      }
    },
    {
      "title": "Person",
      "id": "cid:d9e353",
      "updated": "2014-08-26T00:00:00",
      "content": {
        "resourceType": "Practitioner",
        "extension": [
          {
            "url": "http://camara.lantanagroup.com/fhir/Profile/ProfileId",
            "valueCode": "http://www.lantanagroup.com/camara/fhir/us-realm-author"
          }
        ],
        "text": {
          "div": "Frank Jones",
          "status": "generated"
        },
        "name": {
          "text": "Jones, Frank",
          "family": [
            "Jones"
          ],
          "given": [
            "Frank"
          ]
        }
      }
    },
    {
      "title": "Location",
      "id": "cid:d9e157",
      "updated": "2014-08-26T00:00:00",
      "content": {
        "resourceType": "Location",
        "extension": [
          {
            "url": "http://camara.lantanagroup.com/fhir/Profile/ProfileId",
            "valueCode": "http://hl7.org/fhir/profiles/Location"
          }
        ],
        "text": {
          "div": "",
          "status": "generated"
        },
        "address": {
          "line": [
            null
          ],
          "city": "Beaverton",
          "state": "OR",
          "zip": "97867",
          "country": "US"
        }
      }
    },
    {
      "title": "Patient",
      "id": "cid:d9e40",
      "updated": "2014-08-26T00:00:00",
      "content": {
        "resourceType": "Patient",
        "extension": [
          {
            "url": "http://camara.lantanagroup.com/fhir/Profile/ProfileId",
            "valueCode": "http://www.lantanagroup.com/camara/fhir/us-realm-patient"
          },
          {
            "url": "http://hl7.org/fhir/Profile/us-core#race",
            "valueCodeableConcept": {
              "coding": [
                {
                  "system": "urn:oid:2.16.840.1.113883.6.238",
                  "code": "2106-3",
                  "display": "White"
                }
              ]
            }
          },
          {
            "url": "http://hl7.org/fhir/Profile/us-core#ethnicity",
            "valueCodeableConcept": {
              "coding": [
                {
                  "system": "urn:oid:2.16.840.1.113883.12.189",
                  "code": "N",
                  "display": "Not Hispanic or Latino"
                }
              ]
            }
          },
          {
            "url": "http://hl7.org/fhir/Profile/us-core#religion",
            "valueCodeableConcept": {
              "coding": [
                {
                  "system": "urn:oid:2.16.840.1.113883.5.1076",
                  "code": "1013",
                  "display": "Christian (non-Catholic, non-specific)"
                }
              ]
            }
          }
        ],
        "text": {
          "div": "Jones, Isabella Isa",
          "status": "generated"
        },
        "identifier": [
          {
            "label": "Unknown ID type",
            "system": "urn:oid:2.16.840.1.113883.19.5.99999.2",
            "value": "998991"
          },
          {
            "system": "http://hl7.org/fhir/sid/us-ssn",
            "value": "http://hl7.org/fhir/sid/us-ssn/111-00-2330"
          }
        ],
        "name": [
          {
            "text": "Jones, Isabella Isa",
            "family": [
              "Jones"
            ],
            "given": [
              "Isabella",
              "Isa"
            ]
          }
        ],
        "telecom": [
          {
            "system": "phone",
            "value": "(816)276-6909",
            "use": "home"
          }
        ],
        "gender": {
          "coding": [
            {
              "system": "urn:oid:2.16.840.1.113883.12.1",
              "code": "F",
              "display": "Female"
            }
          ]
        },
        "birthDate": "1975-05-01Z",
        "address": [
          {
            "use": "home",
            "line": [
              "1357 Amber Drive"
            ],
            "city": "Beaverton",
            "state": "OR",
            "zip": "97867",
            "country": "US"
          }
        ],
        "maritalStatus": {
          "coding": [
            {
              "system": "http://hl7.org/fhir/v3/MaritalStatus",
              "code": "M",
              "display": "Married"
            }
          ]
        },
        "contact": [
          {
            "relationship": [
              {
                "coding": [
                  {
                    "system": "urn:oid:2.16.840.1.113883.5.111",
                    "code": "PRN",
                    "display": "Parent"
                  }
                ],
                "text": "Parent"
              }
            ],
            "name": {
              "text": "Jones, Ralph",
              "family": [
                "Jones"
              ],
              "given": [
                "Ralph"
              ]
            },
            "telecom": [
              {
                "system": "phone",
                "value": "(816)276-6909",
                "use": "home"
              }
            ],
            "address": {
              "use": "home",
              "line": [
                "1357 Amber Drive"
              ],
              "city": "Beaverton",
              "state": "OR",
              "zip": "97867",
              "country": "US"
            }
          }
        ],
        "communication": [
          {
            "coding": [
              {
                "code": "en"
              }
            ]
          }
        ],
        "managingOrganization": {
          "display": "Community Health and Hospitals",
          "reference": "cid:d9e190"
        }
      }
    },
    {
      "title": "Author",
      "id": "cid:d9e220",
      "updated": "2014-08-26T00:00:00",
      "content": {
        "resourceType": "Practitioner",
        "extension": [
          {
            "url": "http://camara.lantanagroup.com/fhir/Profile/ProfileId",
            "valueCode": "http://www.lantanagroup.com/camara/fhir/us-realm-author"
          },
          {
            "url": "http://hl7.org/fhir/Profile/us-core#authorTime",
            "valueDateTime": "2005-03-29T22:44:11+05:00"
          }
        ],
        "text": {
          "div": "Henry Seven",
          "status": "generated"
        },
        "identifier": [
          {
            "label": "Unknown ID type",
            "system": "urn:oid:2.16.840.1.113883.4.6",
            "value": "99999999"
          }
        ],
        "name": {
          "text": "Seven, Henry",
          "family": [
            "Seven"
          ],
          "given": [
            "Henry"
          ]
        },
        "telecom": [
          {
            "system": "phone",
            "value": "555-555-1002",
            "use": "work"
          }
        ],
        "address": {
          "line": [
            "1002 Healthcare Drive"
          ],
          "city": "Portland",
          "state": "OR",
          "zip": "99123",
          "country": "US"
        }
      }
    },
    {
      "title": "Authenticator: Practitioner",
      "id": "cid:d9e425",
      "updated": "2014-08-26T00:00:00",
      "content": {
        "resourceType": "Practitioner",
        "extension": [
          {
            "url": "http://camara.lantanagroup.com/fhir/Profile/ProfileId",
            "valueCode": "http://www.lantanagroup.com/camara/fhir/us-realm-author"
          }
        ],
        "text": {
          "div": "",
          "status": "generated"
        },
        "identifier": [
          {
            "label": "Unknown ID type",
            "system": "urn:oid:2.16.840.1.113883.4.6",
            "value": "999999999"
          }
        ],
        "name": {
          "text": "Seven, Henry",
          "family": [
            "Seven"
          ],
          "given": [
            "Henry"
          ]
        },
        "telecom": [
          {
            "system": "phone",
            "value": "555-555-1002",
            "use": "work"
          }
        ],
        "address": {
          "line": [
            "1001 Village Avenue"
          ],
          "city": "Portland",
          "state": "OR",
          "zip": "99123",
          "country": "US"
        }
      }
    },
    {
      "title": "Authenticator: Practitioner",
      "id": "cid:d9e469",
      "updated": "2014-08-26T00:00:00",
      "content": {
        "resourceType": "Practitioner",
        "extension": [
          {
            "url": "http://camara.lantanagroup.com/fhir/Profile/ProfileId",
            "valueCode": "http://www.lantanagroup.com/camara/fhir/us-realm-author"
          }
        ],
        "text": {
          "div": "",
          "status": "generated"
        },
        "identifier": [
          {
            "label": "Unknown ID type",
            "system": "urn:oid:2.16.840.1.113883.4.6",
            "value": "999999999"
          }
        ],
        "name": {
          "text": "Seven, Henry",
          "family": [
            "Seven"
          ],
          "given": [
            "Henry"
          ]
        },
        "telecom": [
          {
            "system": "phone",
            "value": "555-555-1002",
            "use": "work"
          }
        ],
        "address": {
          "line": [
            "1001 Village Avenue"
          ],
          "city": "Portland",
          "state": "OR",
          "zip": "99123",
          "country": "US"
        }
      }
    },
    {
      "title": "ADVANCE DIRECTIVES (section)",
      "id": "cid:d9e621",
      "updated": "2014-08-26T00:00:00",
      "content": {
        "resourceType": "List",
        "extension": [
          {
            "url": "http://camara.lantanagroup.com/fhir/Profile/ProfileId",
            "valueCode": "http://www.lantanagroup.com/camara/fhir/advance-directives-section"
          },
          {
            "url": "http://camara.lantanagroup.com/fhir/Profile/ProfileId",
            "valueCode": "http://www.lantanagroup.com/camara/fhir/advance-directives-section"
          }
        ],
        "text": {
          "div": "<div><div class=\"additional\"/><div class=\"custom\"><table xmlns=\"http://www.w3.org/1999/xhtml\" border=\"1\" width=\"100%\"><thead><tr><th>Directive</th><th>Description</th><th>Verification</th><th>Supporting Document(s)</th></tr></thead><tbody><tr><td>Resuscitation status</td><td><span id=\"AD1\">Do not resuscitate</span></td><td>Dr. Robert Dolin, Feb 13, 2011</td><td>&#xD;\n                                            Advance directive&#xD;\n                                        </td></tr></tbody></table></div><hr/></div>",
          "status": "generated"
        },
        "code": {
          "coding": [
            {
              "system": "http://loinc.org",
              "code": "42348-3"
            }
          ]
        },
        "mode": "working",
        "entry": [
          {
            "item": {
              "reference": "cid:entryd9e687"
            }
          }
        ]
      }
    },
    {
      "title": "Advance Directive Entry",
      "id": "cid:entryd9e687",
      "updated": "2014-08-26T00:00:00",
      "content": {
        "resourceType": "Observation",
        "extension": [
          {
            "url": "http://camara.lantanagroup.com/fhir/Profile/ProfileId",
            "valueCode": "http://www.lantanagroup.com/camara/fhir/advance-directive-observation"
          }
        ],
        "name": {
          "coding": [
            {
              "system": "http://snomed.info/sct",
              "code": "304251008",
              "display": "Resuscitation"
            }
          ]
        },
        "appliesPeriod": {
          "start": "2011-02-13Z"
        },
        "status": "final",
        "reliability": "unknown",
        "identifier": {
          "label": "Unknown ID type",
          "system": "urn:uuid:9b54c3c9-1673-49c7-aef9-b037ed72ed27"
        }
      }
    },
    {
      "title": "ALLERGIES, ADVERSE REACTIONS, ALERTS (section)",
      "id": "cid:d9e806",
      "updated": "2014-08-26T00:00:00",
      "content": {
        "resourceType": "List",
        "extension": [
          {
            "url": "http://camara.lantanagroup.com/fhir/Profile/ProfileId",
            "valueCode": "http://www.lantanagroup.com/camara/fhir/allergies-section"
          },
          {
            "url": "http://camara.lantanagroup.com/fhir/Profile/ProfileId",
            "valueCode": "http://www.lantanagroup.com/camara/fhir/allergies-section"
          }
        ],
        "text": {
          "div": "<div><div class=\"additional\"/><div class=\"custom\"/><hr/></div>",
          "status": "generated"
        },
        "code": {
          "coding": [
            {
              "system": "http://loinc.org",
              "code": "48765-2"
            }
          ]
        },
        "mode": "working",
        "entry": [
          {
            "item": {
              "reference": "cid:entryd9e935"
            }
          },
          {
            "item": {
              "reference": "cid:entryd9e1096"
            }
          },
          {
            "item": {
              "reference": "cid:entryd9e1257"
            }
          }
        ]
      }
    },
    {
      "title": "Allergy Problem Act Entry",
      "id": "cid:entryd9e935",
      "updated": "2014-08-26T00:00:00",
      "content": {
        "resourceType": "List",
        "extension": [
          {
            "url": "http://camara.lantanagroup.com/fhir/Profile/ProfileId",
            "valueCode": "http://www.lantanagroup.com/camara/fhir/allergy-problem-act"
          }
        ],
        "identifier": [
          {
            "label": "Unknown ID type",
            "system": "urn:uuid:36e3e930-7b14-11db-9fe1-0800200c9a66"
          }
        ],
        "code": {
          "coding": [
            {
              "system": "http://loinc.org",
              "code": "48765-2",
              "display": "Allergies, adverse reactions, alerts"
            }
          ]
        },
        "date": "2007-05-01Z",
        "mode": "snapshot",
        "entry": [
          {
            "item": {
              "display": "ALLERGENIC EXTRACT, PENICILLIN",
              "reference": "cid:entryd9e952"
            }
          }
        ]
      }
    },
    {
      "title": "Allergy Intolerance Observation Entry",
      "id": "cid:entryd9e952",
      "updated": "2014-08-26T00:00:00",
      "content": {
        "resourceType": "AllergyIntolerance",
        "extension": [
          {
            "url": "http://camara.lantanagroup.com/fhir/Profile/ProfileId",
            "valueCode": "http://www.lantanagroup.com/camara/fhir/allergy-intolerance-observation"
          }
        ],
        "identifier": [
          {
            "label": "Unknown ID type",
            "system": "urn:uuid:4adc1020-7b14-11db-9fe1-0800200c9a66"
          }
        ],
        "criticality": "high",
        "sensitivityType": "allergy",
        "recordedDate": "2007-05-01Z",
        "status": "resolved",
        "subject": {
          "display": "Jones, Isabella Isa",
          "reference": "cid:d9e40"
        },
        "substance": {
          "display": "ALLERGENIC EXTRACT, PENICILLIN",
          "reference": "cid:subEntryd9e984"
        },
        "reaction": [
          {
            "display": "Nausea",
            "reference": "cid:subEntryd9e1013"
          }
        ]
      }
    },
    {
      "title": "Substance Entry",
      "id": "cid:subEntryd9e984",
      "updated": "2014-08-26T00:00:00",
      "content": {
        "resourceType": "Substance",
        "extension": [
          {
            "url": "http://camara.lantanagroup.com/fhir/Profile/ProfileId",
            "valueCode": "http://www.lantanagroup.com/camara/fhir/allergy-intolerance-observation-substance"
          }
        ],
        "text": {
          "div": "ALLERGENIC EXTRACT, PENICILLIN",
          "status": "generated"
        },
        "type": {
          "coding": [
            {
              "system": "urn:oid:2.16.840.1.113883.6.88",
              "code": "314422",
              "display": "ALLERGENIC EXTRACT, PENICILLIN"
            }
          ],
          "text": "Nausea"
        }
      }
    },
    {
      "title": "Reaction Entry",
      "id": "cid:subEntryd9e1013",
      "updated": "2014-08-26T00:00:00",
      "content": {
        "resourceType": "AdverseReaction",
        "extension": [
          {
            "url": "http://camara.lantanagroup.com/fhir/Profile/ProfileId",
            "valueCode": "http://www.lantanagroup.com/camara/fhir/allergy-intolerance-reaction-observation"
          }
        ],
        "identifier": [
          {
            "label": "Unknown ID type",
            "system": "urn:uuid:4adc1020-7b14-11db-9fe1-0800200c9a64"
          }
        ],
        "date": "2007-05-01Z",
        "subject": {
          "display": "Jones, Isabella Isa",
          "reference": "cid:d9e40"
        },
        "didNotOccurFlag": "false",
        "symptom": [
          {
            "code": {
              "coding": [
                {
                  "system": "urn:oid:2.16.840.1.113883.6.96",
                  "code": "422587007",
                  "display": "Nausea"
                }
              ],
              "text": "Nausea"
            },
            "severity": "minor"
          }
        ]
      }
    },
    {
      "title": "Allergy Problem Act Entry",
      "id": "cid:entryd9e1096",
      "updated": "2014-08-26T00:00:00",
      "content": {
        "resourceType": "List",
        "extension": [
          {
            "url": "http://camara.lantanagroup.com/fhir/Profile/ProfileId",
            "valueCode": "http://www.lantanagroup.com/camara/fhir/allergy-problem-act"
          }
        ],
        "identifier": [
          {
            "label": "Unknown ID type",
            "system": "urn:uuid:36e3e930-7b14-11db-9fe1-0800200c9a66"
          }
        ],
        "code": {
          "coding": [
            {
              "system": "http://loinc.org",
              "code": "48765-2",
              "display": "Allergies, adverse reactions, alerts"
            }
          ]
        },
        "date": "2006-05-01Z",
        "mode": "snapshot",
        "entry": [
          {
            "item": {
              "display": "Codeine",
              "reference": "cid:entryd9e1113"
            }
          }
        ]
      }
    },
    {
      "title": "Allergy Intolerance Observation Entry",
      "id": "cid:entryd9e1113",
      "updated": "2014-08-26T00:00:00",
      "content": {
        "resourceType": "AllergyIntolerance",
        "extension": [
          {
            "url": "http://camara.lantanagroup.com/fhir/Profile/ProfileId",
            "valueCode": "http://www.lantanagroup.com/camara/fhir/allergy-intolerance-observation"
          }
        ],
        "identifier": [
          {
            "label": "Unknown ID type",
            "system": "urn:uuid:4adc1020-7b14-11db-9fe1-0800200c9a66"
          }
        ],
        "criticality": "medium",
        "sensitivityType": "allergy",
        "recordedDate": "2006-05-01Z",
        "status": "confirmed",
        "subject": {
          "display": "Jones, Isabella Isa",
          "reference": "cid:d9e40"
        },
        "substance": {
          "display": "Codeine",
          "reference": "cid:subEntryd9e1145"
        },
        "reaction": [
          {
            "display": "Wheezing",
            "reference": "cid:subEntryd9e1174"
          }
        ]
      }
    },
    {
      "title": "Substance Entry",
      "id": "cid:subEntryd9e1145",
      "updated": "2014-08-26T00:00:00",
      "content": {
        "resourceType": "Substance",
        "extension": [
          {
            "url": "http://camara.lantanagroup.com/fhir/Profile/ProfileId",
            "valueCode": "http://www.lantanagroup.com/camara/fhir/allergy-intolerance-observation-substance"
          }
        ],
        "text": {
          "div": "Codeine",
          "status": "generated"
        },
        "type": {
          "coding": [
            {
              "system": "urn:oid:2.16.840.1.113883.6.88",
              "code": "2670",
              "display": "Codeine"
            }
          ],
          "text": "Wheezing"
        }
      }
    },
    {
      "title": "Reaction Entry",
      "id": "cid:subEntryd9e1174",
      "updated": "2014-08-26T00:00:00",
      "content": {
        "resourceType": "AdverseReaction",
        "extension": [
          {
            "url": "http://camara.lantanagroup.com/fhir/Profile/ProfileId",
            "valueCode": "http://www.lantanagroup.com/camara/fhir/allergy-intolerance-reaction-observation"
          }
        ],
        "identifier": [
          {
            "label": "Unknown ID type",
            "system": "urn:uuid:4adc1020-7b14-11db-9fe1-0800200c9a64"
          }
        ],
        "date": "2006-05-01Z",
        "subject": {
          "display": "Jones, Isabella Isa",
          "reference": "cid:d9e40"
        },
        "didNotOccurFlag": "false",
        "symptom": [
          {
            "code": {
              "coding": [
                {
                  "system": "urn:oid:2.16.840.1.113883.6.96",
                  "code": "56018004",
                  "display": "Wheezing"
                }
              ],
              "text": "Wheezing"
            },
            "severity": "minor"
          }
        ]
      }
    },
    {
      "title": "Allergy Problem Act Entry",
      "id": "cid:entryd9e1257",
      "updated": "2014-08-26T00:00:00",
      "content": {
        "resourceType": "List",
        "extension": [
          {
            "url": "http://camara.lantanagroup.com/fhir/Profile/ProfileId",
            "valueCode": "http://www.lantanagroup.com/camara/fhir/allergy-problem-act"
          }
        ],
        "identifier": [
          {
            "label": "Unknown ID type",
            "system": "urn:uuid:36e3e930-7b14-11db-9fe1-0800200c9a66"
          }
        ],
        "code": {
          "coding": [
            {
              "system": "http://loinc.org",
              "code": "48765-2",
              "display": "Allergies, adverse reactions, alerts"
            }
          ]
        },
        "date": "2008-05-01Z",
        "mode": "snapshot",
        "entry": [
          {
            "item": {
              "display": "Aspirin",
              "reference": "cid:entryd9e1274"
            }
          }
        ]
      }
    },
    {
      "title": "Allergy Intolerance Observation Entry",
      "id": "cid:entryd9e1274",
      "updated": "2014-08-26T00:00:00",
      "content": {
        "resourceType": "AllergyIntolerance",
        "extension": [
          {
            "url": "http://camara.lantanagroup.com/fhir/Profile/ProfileId",
            "valueCode": "http://www.lantanagroup.com/camara/fhir/allergy-intolerance-observation"
          }
        ],
        "identifier": [
          {
            "label": "Unknown ID type",
            "system": "urn:uuid:4adc1020-7b14-11db-9fe1-0800200c9a66"
          }
        ],
        "criticality": "medium",
        "sensitivityType": "intolerance",
        "recordedDate": "2008-05-01Z",
        "status": "confirmed",
        "subject": {
          "display": "Jones, Isabella Isa",
          "reference": "cid:d9e40"
        },
        "substance": {
          "display": "Aspirin",
          "reference": "cid:subEntryd9e1306"
        },
        "reaction": [
          {
            "display": "Hives",
            "reference": "cid:subEntryd9e1335"
          }
        ]
      }
    },
    {
      "title": "Substance Entry",
      "id": "cid:subEntryd9e1306",
      "updated": "2014-08-26T00:00:00",
      "content": {
        "resourceType": "Substance",
        "extension": [
          {
            "url": "http://camara.lantanagroup.com/fhir/Profile/ProfileId",
            "valueCode": "http://www.lantanagroup.com/camara/fhir/allergy-intolerance-observation-substance"
          }
        ],
        "text": {
          "div": "Aspirin",
          "status": "generated"
        },
        "type": {
          "coding": [
            {
              "system": "urn:oid:2.16.840.1.113883.6.88",
              "code": "1191",
              "display": "Aspirin"
            }
          ],
          "text": "Hives"
        }
      }
    },
    {
      "title": "Reaction Entry",
      "id": "cid:subEntryd9e1335",
      "updated": "2014-08-26T00:00:00",
      "content": {
        "resourceType": "AdverseReaction",
        "extension": [
          {
            "url": "http://camara.lantanagroup.com/fhir/Profile/ProfileId",
            "valueCode": "http://www.lantanagroup.com/camara/fhir/allergy-intolerance-reaction-observation"
          }
        ],
        "identifier": [
          {
            "label": "Unknown ID type",
            "system": "urn:uuid:4adc1020-7b14-11db-9fe1-0800200c9a64"
          }
        ],
        "date": "2008-05-01Z",
        "subject": {
          "display": "Jones, Isabella Isa",
          "reference": "cid:d9e40"
        },
        "didNotOccurFlag": "false",
        "symptom": [
          {
            "code": {
              "coding": [
                {
                  "system": "urn:oid:2.16.840.1.113883.6.96",
                  "code": "247472004",
                  "display": "Hives"
                }
              ],
              "text": "Hives"
            },
            "severity": "moderate"
          }
        ]
      }
    },
    {
      "title": "ASSESSMENT (section)",
      "id": "cid:d9e1423",
      "updated": "2014-08-26T00:00:00",
      "content": {
        "resourceType": "List",
        "extension": [
          {
            "url": "http://camara.lantanagroup.com/fhir/Profile/ProfileId",
            "valueCode": "http://www.lantanagroup.com/camara/fhir/assessment-section"
          }
        ],
        "text": {
          "div": "<div><div class=\"additional\"/><div class=\"custom\"><ol xmlns=\"http://www.w3.org/1999/xhtml\"><li>Recurrent GI bleed of unknown etiology; hypotension perhaps&#xD;\n                                    secondary to this but as likely secondary to polypharmacy.</li><li>Acute on chronic anemia secondary to #1.</li><li>Azotemia, acute renal failure with volume loss secondary to&#xD;\n                                    #1.</li><li>Hyperkalemia secondary to #3 and on ACE and K+ supplement.</li><li>Other chronic diagnoses as noted above, currently stable.</li></ol></div><hr/></div>",
          "status": "generated"
        },
        "code": {
          "coding": [
            {
              "system": "http://loinc.org",
              "code": "51848-0",
              "display": "ASSESSMENT"
            }
          ]
        },
        "mode": "working",
        "emptyReason": {
          "text": "Narrative section"
        }
      }
    },
    {
      "title": "ENCOUNTERS (section)",
      "id": "cid:d9e1461",
      "updated": "2014-08-26T00:00:00",
      "content": {
        "resourceType": "List",
        "extension": [
          {
            "url": "http://camara.lantanagroup.com/fhir/Profile/ProfileId",
            "valueCode": "http://www.lantanagroup.com/camara/fhir/encounters-section"
          },
          {
            "url": "http://camara.lantanagroup.com/fhir/Profile/ProfileId",
            "valueCode": "http://www.lantanagroup.com/camara/fhir/encounters-section"
          }
        ],
        "text": {
          "div": "<div><div class=\"additional\"/><div class=\"custom\"/><hr/></div>",
          "status": "generated"
        },
        "code": {
          "coding": [
            {
              "system": "http://loinc.org",
              "code": "46240-8",
              "display": "History of encounters"
            }
          ]
        },
        "mode": "working",
        "entry": [
          {
            "item": {
              "reference": "cid:entryd9e1523"
            }
          }
        ]
      }
    },
    {
      "title": "Encounter Entry",
      "id": "cid:entryd9e1523",
      "updated": "2014-08-26T00:00:00",
      "content": {
        "resourceType": "Encounter",
        "extension": [
          {
            "url": "http://camara.lantanagroup.com/fhir/Profile/ProfileId",
            "valueCode": "http://www.lantanagroup.com/camara/fhir/encounter-activities"
          }
        ],
        "identifier": [
          {
            "label": "Unknown ID type",
            "system": "urn:uuid:2a620155-9d11-439e-92b3-5d9815ff4de8"
          }
        ],
        "status": "finished",
        "class": "outpatient",
        "type": [
          {
            "coding": [
              {
                "system": "urn:oid:2.16.840.1.113883.6.12",
                "code": "99213",
                "display": "Office outpatient visit 15 minutes"
              },
              {
                "system": "http://hl7.org/fhir/v3/ActCode",
                "code": "AMB",
                "display": "Ambulatory"
              }
            ],
            "text": "Checkup Examination"
          }
        ],
        "participant": [
          {
            "type": [
              {
                "coding": [
                  {
                    "system": "http://snomed.info/sct",
                    "code": "59058001",
                    "display": "General Physician"
                  }
                ]
              }
            ]
          }
        ],
        "period": {
          "start": "2009-02-27T13:00:00+05:00"
        },
        "reason": {
          "coding": [
            {
              "system": "http://snomed.info/sct",
              "code": "233604007",
              "display": "Pneumonia"
            }
          ]
        },
        "location": [
          {
            "location": {
              "reference": "cid:d9e1560"
            },
            "period": {}
          }
        ]
      }
    },
    {
      "title": "Location Entry",
      "id": "cid:d9e1560",
      "updated": "2014-08-26T00:00:00",
      "content": {
        "resourceType": "Location",
        "extension": [
          {
            "url": "http://camara.lantanagroup.com/fhir/Profile/ProfileId",
            "valueCode": "http://hl7.org/fhir/profiles/Location"
          }
        ],
        "name": "Community Urgent Care Center",
        "description": {},
        "type": {
          "coding": [
            {
              "system": "urn:oid:2.16.840.1.113883.6.259",
              "code": "1160-1",
              "display": "Urgent Care Center"
            }
          ],
          "text": "Urgent Care Center"
        },
        "telecom": [
          {
            "system": "phone",
            "value": "Unknown"
          }
        ],
        "address": {
          "line": [
            "17 Daws Rd."
          ],
          "city": "Blue Bell",
          "state": "MA",
          "zip": "02368",
          "country": "US"
        }
      }
    },
    {
      "title": "FAMILY HISTORY (section)",
      "id": "cid:d9e1627",
      "updated": "2014-08-26T00:00:00",
      "content": {
        "resourceType": "List",
        "extension": [
          {
            "url": "http://camara.lantanagroup.com/fhir/Profile/ProfileId",
            "valueCode": "http://www.lantanagroup.com/camara/fhir/family-history-section"
          }
        ],
        "text": {
          "div": "<div><div class=\"additional\"/><div class=\"custom\"/><hr/></div>",
          "status": "generated"
        },
        "code": {
          "coding": [
            {
              "system": "http://loinc.org",
              "code": "10157-6"
            }
          ]
        },
        "mode": "working",
        "entry": [
          {
            "item": {
              "reference": "cid:entryd9e1627"
            }
          }
        ]
      }
    },
    {
      "title": "Family History",
      "id": "cid:entryd9e1627",
      "updated": "2014-08-26T00:00:00",
      "content": {
        "resourceType": "FamilyHistory",
        "extension": [
          {
            "url": "http://camara.lantanagroup.com/fhir/Profile/ProfileId",
            "valueCode": "http://www.lantanagroup.com/camara/fhir/family-history"
          }
        ],
        "subject": {
          "display": "Jones, Isabella Isa",
          "reference": "cid:d9e40"
        },
        "relation": [
          {
            "relationship": {
              "coding": [
                {
                  "system": "http://hl7.org/fhir/v3/RoleCode",
                  "code": "FTH",
                  "display": "Father"
                },
                {
                  "system": "http://snomed.info/sct",
                  "code": "9947008",
                  "display": "Biological father"
                }
              ]
            },
            "bornDate": "1910",
            "condition": [
              {
              },
              {
                "type": {
                  "coding": [
                    {
                      "system": "http://snomed.info/sct",
                      "code": "44054006",
                      "display": "Diabetes mellitus type 2"
                    }
                  ]
                }
              }
            ]
          }
        ]
      }
    },
    {
      "title": "Functional Status (section)",
      "id": "cid:d9e1818",
      "updated": "2014-08-26T00:00:00",
      "content": {
        "resourceType": "List",
        "extension": [
          {
            "url": "http://camara.lantanagroup.com/fhir/Profile/ProfileId",
            "valueCode": "http://www.lantanagroup.com/camara/fhir/functional-status-section"
          }
        ],
        "text": {
          "div": "<div><div class=\"additional\"/><div class=\"custom\"/><hr/></div>",
          "status": "generated"
        },
        "code": {
          "coding": [
            {
              "system": "http://loinc.org",
              "code": "47420-5"
            }
          ]
        },
        "mode": "working"
      }
    },
    {
      "title": "Results Organizer",
      "id": "cid:entryd9e1923",
      "updated": "2014-08-26T00:00:00",
      "content": {
        "resourceType": "List",
        "extension": [
          {
            "url": "http://camara.lantanagroup.com/fhir/Profile/ProfileId",
            "valueCode": "http://www.lantanagroup.com/camara/fhir/results-organizer"
          }
        ],
        "identifier": [
          {
            "label": "Unknown ID type",
            "system": "urn:uuid:9295dba4-df05-46bb-b94e-f2c4e4b156f8"
          }
        ],
        "code": {
          "coding": [
            {
              "system": "urn:oid:2.16.840.1.113883.6.254",
              "code": "d5",
              "display": "Self-Care"
            }
          ]
        },
        "mode": "snapshot",
        "entry": [
          {
            "item": {
              "reference": "cid:subEntryd9e1942"
            }
          }
        ]
      }
    },
    {
      "title": "Results Observation",
      "id": "cid:subEntryd9e1942",
      "updated": "2014-08-26T00:00:00",
      "content": {
        "resourceType": "Observation",
        "extension": [
          {
            "url": "http://camara.lantanagroup.com/fhir/Profile/ProfileId",
            "valueCode": "http://www.lantanagroup.com/camara/fhir/result-observation"
          },
          {
            "url": "http://camara.lantanagroup.com/fhir/Profile/ProfileId",
            "valueCode": "http://www.lantanagroup.com/camara/fhir/functional-status-result-observation"
          }
        ],
        "text": {
          "div": "Ambulation(Dependent to Independent)",
          "status": "additional"
        },
        "name": {
          "coding": [
            {
              "system": "http://loinc.org",
              "code": "57251-1",
              "display": "Ambulation"
            }
          ]
        },
        "appliesDateTime": "2009-03-11T12:30Z",
        "status": "final",
        "reliability": "ok",
        "identifier": {
          "label": "Unknown ID type",
          "system": "urn:uuid:c6b5a04b-2bf4-49d1-8336-636a3813df0a"
        }
      }
    },
    {
      "title": "Problem Entry",
      "id": "cid:entryd9e2069",
      "updated": "2014-08-26T00:00:00",
      "content": {
        "resourceType": "Condition",
        "extension": [
          {
            "url": "http://camara.lantanagroup.com/fhir/Profile/ProfileId",
            "valueCode": "http://www.lantanagroup.com/camara/fhir/problem-observation"
          }
        ],
        "identifier": [
          {
            "label": "Unknown ID type",
            "system": "urn:uuid:08edb7c0-2111-43f2-a784-9a5fdfaa67f0"
          }
        ],
        "subject": {
          "display": "Jones, Isabella Isa",
          "reference": "cid:d9e40"
        },
        "code": {
          "coding": [
            {
              "system": "http://snomed.info/sct",
              "code": " 162891007",
              "display": "dyspnea"
            }
          ]
        },
        "category": {
          "coding": [
            {
              "system": "http://snomed.info/sct",
              "code": "248536006",
              "display": "Finding of Functional Performance and Activity"
            }
          ]
        },
        "status": "confirmed",
        "onsetDate": "2007-02Z",
        "abatementDate": "2007-04Z"
      }
    },
    {
      "title": "Problem Entry",
      "id": "cid:entryd9e2104",
      "updated": "2014-08-26T00:00:00",
      "content": {
        "resourceType": "Condition",
        "extension": [
          {
            "url": "http://camara.lantanagroup.com/fhir/Profile/ProfileId",
            "valueCode": "http://www.lantanagroup.com/camara/fhir/problem-observation"
          }
        ],
        "identifier": [
          {
            "label": "Unknown ID type",
            "system": "urn:uuid:08edb7c0-2111-43f2-a784-9a5fdfaa67f0"
          }
        ],
        "subject": {
          "display": "Jones, Isabella Isa",
          "reference": "cid:d9e40"
        },
        "code": {
          "coding": [
            {
              "system": "http://snomed.info/sct",
              "code": "386807006",
              "display": "Memory impairment"
            }
          ]
        },
        "category": {
          "coding": [
            {
              "system": "http://snomed.info/sct",
              "code": "373930000",
              "display": "Cognitive Function Finding"
            }
          ]
        },
        "status": "confirmed",
        "onsetDate": "2007-04Z",
        "abatementDate": "2007-06Z"
      }
    },
    {
      "title": "Results Organizer",
      "id": "cid:entryd9e2139",
      "updated": "2014-08-26T00:00:00",
      "content": {
        "resourceType": "List",
        "extension": [
          {
            "url": "http://camara.lantanagroup.com/fhir/Profile/ProfileId",
            "valueCode": "http://www.lantanagroup.com/camara/fhir/results-organizer"
          }
        ],
        "identifier": [
          {
            "label": "Unknown ID type",
            "system": "urn:uuid:9295dba4-df05-46bb-b94e-f2c4e4b156f8"
          }
        ],
        "code": {
          "coding": [
            {
              "system": "urn:oid:2.16.840.1.113883.6.254",
              "code": "d3",
              "display": "Communication"
            }
          ]
        },
        "mode": "snapshot",
        "entry": [
          {
            "item": {
              "reference": "cid:subEntryd9e2158"
            }
          }
        ]
      }
    },
    {
      "title": "Results Observation",
      "id": "cid:subEntryd9e2158",
      "updated": "2014-08-26T00:00:00",
      "content": {
        "resourceType": "Observation",
        "extension": [
          {
            "url": "http://camara.lantanagroup.com/fhir/Profile/ProfileId",
            "valueCode": "http://www.lantanagroup.com/camara/fhir/result-observation"
          }
        ],
        "text": {
          "div": "Cognitive Function Finding(Non-Aggressive to Aggressive)",
          "status": "additional"
        },
        "name": {
          "coding": [
            {
              "system": "http://snomed.info/sct",
              "code": "373930000",
              "display": "Cognitive function finding"
            }
          ]
        },
        "appliesDateTime": "2009-03-11T12:30Z",
        "status": "final",
        "reliability": "ok",
        "identifier": {
          "label": "Unknown ID type",
          "system": "urn:uuid:c6b5a04b-2bf4-49d1-8336-636a3813df0a"
        }
      }
    },
    {
      "title": "IMMUNIZATIONS (section)",
      "id": "cid:d9e2298",
      "updated": "2014-08-26T00:00:00",
      "content": {
        "resourceType": "List",
        "extension": [
          {
            "url": "http://camara.lantanagroup.com/fhir/Profile/ProfileId",
            "valueCode": "http://www.lantanagroup.com/camara/fhir/immunizations-section"
          },
          {
            "url": "http://camara.lantanagroup.com/fhir/Profile/ProfileId",
            "valueCode": "http://www.lantanagroup.com/camara/fhir/immunizations-section"
          }
        ],
        "text": {
          "div": "<div><div class=\"additional\"/><div class=\"custom\"/><hr/></div>",
          "status": "generated"
        },
        "code": {
          "coding": [
            {
              "system": "http://loinc.org",
              "code": "11369-6",
              "display": "History of immunizations"
            }
          ]
        },
        "mode": "working",
        "entry": [
          {
            "item": {
              "reference": "cid:entryd9e2398"
            }
          },
          {
            "item": {
              "reference": "cid:entryd9e2527"
            }
          },
          {
            "item": {
              "reference": "cid:entryd9e2656"
            }
          },
          {
            "item": {
              "reference": "cid:entryd9e2766"
            }
          }
        ]
      }
    },
    {
      "title": "Immunization Activity Entry",
      "id": "cid:entryd9e2398",
      "updated": "2014-08-26T00:00:00",
      "content": {
        "resourceType": "Immunization",
        "extension": [
          {
            "url": "http://camara.lantanagroup.com/fhir/Profile/ProfileId",
            "valueCode": "http://www.lantanagroup.com/camara/fhir/immunization-activity"
          }
        ],
        "identifier": [
          {
            "label": "Unknown ID type",
            "system": "urn:uuid:e6f1ba43-c0ed-4b9b-9f12-f435d8ad8f92"
          }
        ],
        "date": "1999-11Z",
        "vaccineType": {
          "coding": [
            {
              "system": "urn:oid:2.16.840.1.113883.12.292",
              "code": "88",
              "display": "Influenza virus vaccine"
            },
            {
              "system": "urn:oid:2.16.840.1.113883.12.292",
              "code": "141",
              "display": "Influenza, seasonal, injectable"
            }
          ],
          "text": "Influenza, seasonal, IM"
        },
        "subject": {
          "display": "Jones, Isabella Isa",
          "reference": "cid:d9e40"
        },
        "refusedIndicator": "false",
        "reported": "false",
        "performer": {
          "display": "Amanda Assigned",
          "reference": "cid:d9e2454"
        },
        "doseQuantity": {
          "value": "50",
          "units": "mcg"
        }
      }
    },
    {
      "title": "Practitioner",
      "id": "cid:d9e2454",
      "updated": "2014-08-26T00:00:00",
      "content": {
        "resourceType": "Practitioner",
        "extension": [
          {
            "url": "http://camara.lantanagroup.com/fhir/Profile/ProfileId",
            "valueCode": "http://www.lantanagroup.com/camara/fhir/us-realm-author"
          }
        ],
        "text": {
          "div": "",
          "status": "generated"
        },
        "identifier": [
          {
            "label": "Unknown ID type",
            "system": "urn:oid:2.16.840.1.113883.19.5.9999.456",
            "value": "2981824"
          }
        ],
        "name": {
          "text": "Assigned, Amanda",
          "family": [
            "Assigned"
          ],
          "given": [
            "Amanda"
          ]
        },
        "telecom": [
          {
            "system": "phone",
            "value": "Unknown"
          }
        ],
        "address": {
          "line": [
            "1021 Health Drive"
          ],
          "city": "Ann Arbor",
          "state": "MI",
          "zip": "99099",
          "country": "US"
        },
        "organization": {
          "display": "Good Health Clinic",
          "reference": "cid:d9e2490"
        }
      }
    },
    {
      "title": "Immunization Activity Entry",
      "id": "cid:entryd9e2527",
      "updated": "2014-08-26T00:00:00",
      "content": {
        "resourceType": "Immunization",
        "extension": [
          {
            "url": "http://camara.lantanagroup.com/fhir/Profile/ProfileId",
            "valueCode": "http://www.lantanagroup.com/camara/fhir/immunization-activity"
          }
        ],
        "identifier": [
          {
            "label": "Unknown ID type",
            "system": "urn:uuid:e6f1ba43-c0ed-4b9b-9f12-f435d8ad8f92"
          }
        ],
        "date": "1998-12-15Z",
        "vaccineType": {
          "coding": [
            {
              "system": "urn:oid:2.16.840.1.113883.12.292",
              "code": "88",
              "display": "Influenza virus vaccine"
            },
            {
              "system": "urn:oid:2.16.840.1.113883.12.292",
              "code": "141",
              "display": "Influenza, seasonal, injectable"
            }
          ],
          "text": "Influenza, seasonal, IM"
        },
        "subject": {
          "display": "Jones, Isabella Isa",
          "reference": "cid:d9e40"
        },
        "refusedIndicator": true,
        "reported": "false",
        "performer": {
          "display": "Amanda Assigned",
          "reference": "cid:d9e2583"
        },
        "doseQuantity": {
          "value": "50",
          "units": "mcg"
        }
      }
    },
    {
      "title": "Practitioner",
      "id": "cid:d9e2583",
      "updated": "2014-08-26T00:00:00",
      "content": {
        "resourceType": "Practitioner",
        "extension": [
          {
            "url": "http://camara.lantanagroup.com/fhir/Profile/ProfileId",
            "valueCode": "http://www.lantanagroup.com/camara/fhir/us-realm-author"
          }
        ],
        "text": {
          "div": "",
          "status": "generated"
        },
        "identifier": [
          {
            "label": "Unknown ID type",
            "system": "urn:oid:2.16.840.1.113883.19.5.9999.456",
            "value": "2981824"
          }
        ],
        "name": {
          "text": "Assigned, Amanda",
          "family": [
            "Assigned"
          ],
          "given": [
            "Amanda"
          ]
        },
        "telecom": [
          {
            "system": "phone",
            "value": "Unknown"
          }
        ],
        "address": {
          "line": [
            "1021 Health Drive"
          ],
          "city": "Ann Arbor",
          "state": "MI",
          "zip": "99099",
          "country": "US"
        },
        "organization": {
          "display": "Good Health Clinic",
          "reference": "cid:d9e2619"
        }
      }
    },
    {
      "title": "Immunization Activity Entry",
      "id": "cid:entryd9e2656",
      "updated": "2014-08-26T00:00:00",
      "content": {
        "resourceType": "Immunization",
        "extension": [
          {
            "url": "http://camara.lantanagroup.com/fhir/Profile/ProfileId",
            "valueCode": "http://www.lantanagroup.com/camara/fhir/immunization-activity"
          }
        ],
        "identifier": [
          {
            "label": "Unknown ID type",
            "system": "urn:uuid:e6f1ba43-c0ed-4b9b-9f12-f435d8ad8f92"
          }
        ],
        "date": "1998-12-15Z",
        "vaccineType": {
          "coding": [
            {
              "system": "urn:oid:2.16.840.1.113883.12.292",
              "code": "33",
              "display": "Pneumococcal polysaccharide vaccine"
            },
            {
              "system": "urn:oid:2.16.840.1.113883.12.292",
              "code": "109",
              "display": "Pneumococcal NOS"
            }
          ],
          "text": "Pneumococcal polysaccharide vaccine, IM"
        },
        "subject": {
          "display": "Jones, Isabella Isa",
          "reference": "cid:d9e40"
        },
        "refusedIndicator": "false",
        "reported": "false",
        "performer": {
          "display": "Amanda Assigned",
          "reference": "cid:d9e2712"
        },
        "doseQuantity": {
          "value": "50",
          "units": "mcg"
        }
      }
    },
    {
      "title": "Practitioner",
      "id": "cid:d9e2712",
      "updated": "2014-08-26T00:00:00",
      "content": {
        "resourceType": "Practitioner",
        "extension": [
          {
            "url": "http://camara.lantanagroup.com/fhir/Profile/ProfileId",
            "valueCode": "http://www.lantanagroup.com/camara/fhir/us-realm-author"
          }
        ],
        "text": {
          "div": "",
          "status": "generated"
        },
        "identifier": [
          {
            "label": "Unknown ID type",
            "system": "urn:oid:2.16.840.1.113883.19.5.9999.456",
            "value": "2981824"
          }
        ],
        "name": {
          "text": "Assigned, Amanda",
          "family": [
            "Assigned"
          ],
          "given": [
            "Amanda"
          ]
        },
        "telecom": [
          {
            "system": "phone",
            "value": "Unknown"
          }
        ],
        "address": {
          "line": [
            "1021 Health Drive"
          ],
          "city": "Ann Arbor",
          "state": "MI",
          "zip": "99099",
          "country": "US"
        },
        "organization": {
          "display": "Good Health Clinic",
          "reference": "cid:d9e2748"
        }
      }
    },
    {
      "title": "Immunization Activity Entry",
      "id": "cid:entryd9e2766",
      "updated": "2014-08-26T00:00:00",
      "content": {
        "resourceType": "Immunization",
        "extension": [
          {
            "url": "http://camara.lantanagroup.com/fhir/Profile/ProfileId",
            "valueCode": "http://www.lantanagroup.com/camara/fhir/immunization-activity"
          }
        ],
        "identifier": [
          {
            "label": "Unknown ID type",
            "system": "urn:uuid:e6f1ba43-c0ed-4b9b-9f12-f435d8ad8f92"
          }
        ],
        "date": "1998-12-15Z",
        "vaccineType": {
          "coding": [
            {
              "system": "urn:oid:2.16.840.1.113883.12.292",
              "code": "103",
              "display": "Tetanus and diphtheria toxoids - preservative free"
            },
            {
              "system": "urn:oid:2.16.840.1.113883.12.292",
              "code": "09",
              "display": "Tetanus and diphtheria toxoids - preservative free"
            }
          ],
          "text": "Tetanus and diphtheria toxoids, IM"
        },
        "subject": {
          "display": "Jones, Isabella Isa",
          "reference": "cid:d9e40"
        },
        "refusedIndicator": true,
        "reported": "false",
        "performer": {
          "display": "Amanda Assigned",
          "reference": "cid:d9e2822"
        },
        "doseQuantity": {
          "value": "50",
          "units": "mcg"
        },
        "explanation": {
          "refusalReason": [
            {
              "coding": [
                {
                  "system": "urn:oid:2.16.840.1.113883.5.8",
                  "code": "PATOBJ",
                  "display": "Patient Objection"
                }
              ]
            }
          ]
        }
      }
    },
    {
      "title": "Practitioner",
      "id": "cid:d9e2822",
      "updated": "2014-08-26T00:00:00",
      "content": {
        "resourceType": "Practitioner",
        "extension": [
          {
            "url": "http://camara.lantanagroup.com/fhir/Profile/ProfileId",
            "valueCode": "http://www.lantanagroup.com/camara/fhir/us-realm-author"
          }
        ],
        "text": {
          "div": "",
          "status": "generated"
        },
        "identifier": [
          {
            "label": "Unknown ID type",
            "system": "urn:oid:2.16.840.1.113883.19.5.9999.456",
            "value": "2981824"
          }
        ],
        "name": {
          "text": "Assigned, Amanda",
          "family": [
            "Assigned"
          ],
          "given": [
            "Amanda"
          ]
        },
        "telecom": [
          {
            "system": "phone",
            "value": "Unknown"
          }
        ],
        "address": {
          "line": [
            "1021 Health Drive"
          ],
          "city": "Ann Arbor",
          "state": "MI",
          "zip": "99099",
          "country": "US"
        },
        "organization": {
          "display": "Good Health Clinic",
          "reference": "cid:d9e2858"
        }
      }
    },
    {
      "title": "MEDICATIONS (section)",
      "id": "cid:d9e3130",
      "updated": "2014-08-26T00:00:00",
      "content": {
        "resourceType": "List",
        "extension": [
          {
            "url": "http://camara.lantanagroup.com/fhir/Profile/ProfileId",
            "valueCode": "http://www.lantanagroup.com/camara/fhir/medications-section"
          },
          {
            "url": "http://camara.lantanagroup.com/fhir/Profile/ProfileId",
            "valueCode": "http://www.lantanagroup.com/camara/fhir/medications-section"
          }
        ],
        "text": {
          "div": "<div><div class=\"additional\"/><div class=\"custom\"/><hr/></div>",
          "status": "generated"
        },
        "code": {
          "coding": [
            {
              "system": "http://loinc.org",
              "code": "10160-0",
              "display": "HISTORY OF MEDICATION USE"
            }
          ]
        },
        "mode": "working",
        "entry": [
          {
            "flag": [
              {
                "coding": [
                  {
                    "system": "urn:oid:1.2.36.1.2001.1001.101.104.16592",
                    "code": "01",
                    "display": "Unchanged"
                  }
                ]
              }
            ],
            "item": {
              "reference": "cid:entryd9e3207"
            }
          }
        ]
      }
    },
    {
      "title": "Medication Statement Entry",
      "id": "cid:entryd9e3207",
      "updated": "2014-08-26T00:00:00",
      "content": {
        "resourceType": "MedicationStatement",
        "extension": [
          {
            "url": "http://camara.lantanagroup.com/fhir/Profile/ProfileId",
            "valueCode": "http://www.lantanagroup.com/camara/fhir/medication-statement"
          }
        ],
        "identifier": [
          {
            "label": "Unknown ID type",
            "system": "urn:uuid:cdbd33f0-6cde-11db-9fe1-0800200c9a66"
          }
        ],
        "whenGiven": {
          "start": "2007-01-03Z",
          "end": "2012-05-15Z"
        },
        "medication": {
          "display": "Proventil HFA",
          "reference": "cid:d9e3251"
        },
        "dosage": [
          {
            "timing": {
              "event": [
                {
                  "start": "2007-01-03Z",
                  "end": "2012-05-15Z"
                }
              ],
              "repeat": {
                "frequency": "1",
                "duration": "6",
                "units": "h"
              }
            },
            "route": {
              "coding": [
                {
                  "system": "urn:oid:2.16.840.1.113883.3.26.1.1",
                  "code": "C38216",
                  "display": "RESPIRATORY (INHALATION)"
                }
              ]
            },
            "quantity": {
              "value": "1",
              "units": "mg/actuat"
            },
            "rate": {
              "numerator": {
                "value": "90",
                "units": "ml"
              },
              "denominator": {
                "value": "1",
                "units": "min"
              }
            }
          }
        ]
      }
    },
    {
      "title": "Medication Entry",
      "id": "cid:d9e3251",
      "updated": "2014-08-26T00:00:00",
      "content": {
        "resourceType": "Medication",
        "extension": [
          {
            "url": "http://camara.lantanagroup.com/fhir/Profile/ProfileId",
            "valueCode": "http://www.lantanagroup.com/camara/fhir/medication-information"
          }
        ],
        "name": "Proventil HFA",
        "code": {
          "coding": [
            {
              "system": "urn:oid:2.16.840.1.113883.6.88",
              "code": "219483",
              "display": "Proventil HFA"
            },
            {
              "system": "urn:oid:2.16.840.1.113883.6.88",
              "code": "573621",
              "display": "Proventil 0.09 MG/ACTUAT inhalant solution"
            }
          ],
          "text": "Proventil HFA"
        }
      }
    },
    {
      "title": "PLAN OF CARE (section)",
      "id": "cid:d9e3976",
      "updated": "2014-08-26T00:00:00",
      "content": {
        "resourceType": "List",
        "extension": [
          {
            "url": "http://camara.lantanagroup.com/fhir/Profile/ProfileId",
            "valueCode": "http://www.lantanagroup.com/camara/fhir/plan-of-care-section"
          }
        ],
        "text": {
          "div": "<div><div class=\"additional\"/><div class=\"custom\"/><hr/></div>",
          "status": "generated"
        },
        "code": {
          "coding": [
            {
              "system": "http://loinc.org",
              "code": "18776-5",
              "display": "Treatment plan"
            }
          ]
        },
        "mode": "working",
        "entry": [
          {
            "item": {
              "reference": "cid:entryd9e3976"
            }
          }
        ]
      }
    },
    {
      "title": "PLAN OF CARE",
      "id": "cid:entryd9e3976",
      "updated": "2014-08-26T00:00:00",
      "content": {
        "resourceType": "CarePlan",
        "extension": [
          {
            "url": "http://camara.lantanagroup.com/fhir/Profile/ProfileId",
            "valueCode": "http://www.lantanagroup.com/camara/fhir/plan-of-care-activities"
          }
        ],
        "text": {
          "div": "",
          "status": "generated"
        },
        "status": "active",
        "activity": [
          {
            "status": "completed",
            "prohibited": "false",
            "simple": {
              "category": "observation",
              "code": {
                "coding": [
                  {
                    "system": "http://snomed.info/sct",
                    "code": "73761001",
                    "display": "Colonoscopy"
                  }
                ]
              },
              "timingPeriod": {},
              "details": "Colonoscopy"
            }
          },
          {
            "status": "completed",
            "prohibited": "false",
            "simple": {
              "category": "other",
              "code": {
                "coding": [
                  {
                    "system": "http://snomed.info/sct",
                    "code": "73761001",
                    "display": "Colonoscopy"
                  }
                ]
              },
              "timingPeriod": {},
              "details": "Colonoscopy"
            }
          },
          {
            "status": "scheduled",
            "prohibited": "false",
            "simple": {
              "category": "encounter",
              "code": {
                "coding": [
                  {
                    "system": "http://snomed.info/sct",
                    "code": "73761001",
                    "display": "Colonoscopy"
                  }
                ]
              },
              "timingPeriod": {},
              "details": "Colonoscopy"
            }
          },
          {
            "status": "completed",
            "prohibited": "false",
            "simple": {
              "category": "procedure",
              "code": {
                "coding": [
                  {
                    "system": "http://snomed.info/sct",
                    "code": "73761001",
                    "display": "Colonoscopy"
                  }
                ]
              },
              "timingPeriod": {},
              "details": "Colonoscopy"
            }
          }
        ]
      }
    },
    {
      "title": "PROBLEMS (section)",
      "id": "cid:d9e4114",
      "updated": "2014-08-26T00:00:00",
      "content": {
        "resourceType": "List",
        "extension": [
          {
            "url": "http://camara.lantanagroup.com/fhir/Profile/ProfileId",
            "valueCode": "http://www.lantanagroup.com/camara/fhir/problem-section"
          },
          {
            "url": "http://camara.lantanagroup.com/fhir/Profile/ProfileId",
            "valueCode": "http://www.lantanagroup.com/camara/fhir/problem-section"
          }
        ],
        "text": {
          "div": "<div><div class=\"additional\"/><div class=\"custom\"/><hr/></div>",
          "status": "generated"
        },
        "code": {
          "coding": [
            {
              "system": "http://loinc.org",
              "code": "11450-4",
              "display": "PROBLEM LIST"
            }
          ]
        },
        "mode": "working",
        "entry": [
          {
            "item": {
              "reference": "cid:entryd9e4158"
            }
          },
          {
            "item": {
              "reference": "cid:entryd9e4282"
            }
          }
        ]
      }
    },
    {
      "title": "Problem Entry",
      "id": "cid:entryd9e4158",
      "updated": "2014-08-26T00:00:00",
      "content": {
        "resourceType": "List",
        "extension": [
          {
            "url": "http://camara.lantanagroup.com/fhir/Profile/ProfileId",
            "valueCode": "http://www.lantanagroup.com/camara/fhir/problem-concern-act"
          }
        ],
        "identifier": [
          {
            "label": "Unknown ID type",
            "system": "urn:uuid:ec8a6ff8-ed4b-4f7e-82c3-e98e58b45de7"
          }
        ],
        "code": {
          "coding": [
            {
              "system": "urn:oid:2.16.840.1.113883.5.6",
              "code": "CONC",
              "display": "Concern"
            }
          ]
        },
        "date": "2008-01-03Z",
        "mode": "snapshot",
        "entry": [
          {
            "item": {
              "reference": "cid:entryd9e4180"
            }
          }
        ]
      }
    },
    {
      "title": "Problem Entry",
      "id": "cid:entryd9e4180",
      "updated": "2014-08-26T00:00:00",
      "content": {
        "resourceType": "Condition",
        "extension": [
          {
            "url": "http://camara.lantanagroup.com/fhir/Profile/ProfileId",
            "valueCode": "http://www.lantanagroup.com/camara/fhir/problem-observation"
          }
        ],
        "identifier": [
          {
            "label": "Unknown ID type",
            "system": "urn:uuid:ab1791b0-5c71-11db-b0de-0800200c9a66"
          }
        ],
        "subject": {
          "display": "Jones, Isabella Isa",
          "reference": "cid:d9e40"
        },
        "code": {
          "coding": [
            {
              "system": "http://snomed.info/sct",
              "code": "233604007",
              "display": "Pneumonia"
            }
          ]
        },
        "category": {
          "coding": [
            {
              "system": "http://snomed.info/sct",
              "code": "409586006",
              "display": "Complaint"
            }
          ]
        },
        "status": "confirmed",
        "onsetDate": "2008-01-03",
        "abatementDate": "2008-02-22"
      }
    },
    {
      "title": "Problem Entry",
      "id": "cid:entryd9e4282",
      "updated": "2014-08-26T00:00:00",
      "content": {
        "resourceType": "List",
        "extension": [
          {
            "url": "http://camara.lantanagroup.com/fhir/Profile/ProfileId",
            "valueCode": "http://www.lantanagroup.com/camara/fhir/problem-concern-act"
          }
        ],
        "identifier": [
          {
            "label": "Unknown ID type",
            "system": "urn:uuid:ec8a6ff8-ed4b-4f7e-82c3-e98e58b45de7"
          }
        ],
        "code": {
          "coding": [
            {
              "system": "urn:oid:2.16.840.1.113883.5.6",
              "code": "CONC",
              "display": "Concern"
            }
          ]
        },
        "date": "2007-01-03Z",
        "mode": "snapshot",
        "entry": [
          {
            "item": {
              "reference": "cid:entryd9e4304"
            }
          }
        ]
      }
    },
    {
      "title": "Problem Entry",
      "id": "cid:entryd9e4304",
      "updated": "2014-08-26T00:00:00",
      "content": {
        "resourceType": "Condition",
        "extension": [
          {
            "url": "http://camara.lantanagroup.com/fhir/Profile/ProfileId",
            "valueCode": "http://www.lantanagroup.com/camara/fhir/problem-observation"
          }
        ],
        "identifier": [
          {
            "label": "Unknown ID type",
            "system": "urn:uuid:ab1791b0-5c71-11db-b0de-0800200c9a66"
          }
        ],
        "subject": {
          "display": "Jones, Isabella Isa",
          "reference": "cid:d9e40"
        },
        "code": {
          "coding": [
            {
              "system": "http://snomed.info/sct",
              "code": "195967001",
              "display": "Asthma"
            }
          ]
        },
        "category": {
          "coding": [
            {
              "system": "http://snomed.info/sct",
              "code": "409586006",
              "display": "Complaint"
            }
          ]
        },
        "status": "confirmed",
        "onsetDate": "2007-01-03",
        "abatementDate": "2008-01-03"
      }
    },
    {
      "title": "PROCEDURES (section)",
      "id": "cid:d9e4410",
      "updated": "2014-08-26T00:00:00",
      "content": {
        "resourceType": "List",
        "extension": [
          {
            "url": "http://camara.lantanagroup.com/fhir/Profile/ProfileId",
            "valueCode": "http://www.lantanagroup.com/camara/fhir/procedures-section"
          },
          {
            "url": "http://camara.lantanagroup.com/fhir/Profile/ProfileId",
            "valueCode": "http://www.lantanagroup.com/camara/fhir/procedures-section"
          }
        ],
        "text": {
          "div": "<div><div class=\"additional\"/><div class=\"custom\"/><hr/></div>",
          "status": "generated"
        },
        "code": {
          "coding": [
            {
              "system": "http://loinc.org",
              "code": "47519-4",
              "display": "HISTORY OF PROCEDURES"
            }
          ]
        },
        "mode": "working",
        "entry": [
          {
            "item": {
              "reference": "cid:entryd9e4463"
            }
          },
          {
            "item": {
              "reference": "cid:entryd9e4583"
            }
          },
          {
            "item": {
              "reference": "cid:entryd9e4696"
            }
          }
        ]
      }
    },
    {
      "title": "Procedure Entry",
      "id": "cid:entryd9e4463",
      "updated": "2014-08-26T00:00:00",
      "content": {
        "resourceType": "Procedure",
        "extension": [
          {
            "url": "http://camara.lantanagroup.com/fhir/Profile/ProfileId",
            "valueCode": "http://www.lantanagroup.com/camara/fhir/procedure-activity"
          }
        ],
        "identifier": [
          {
            "label": "Unknown ID type",
            "system": "urn:uuid:d68b7e32-7810-4f5b-9cc2-acd54b0fd85d"
          }
        ],
        "subject": {
          "display": "Jones, Isabella Isa",
          "reference": "cid:d9e40"
        },
        "type": {
          "coding": [
            {
              "system": "http://snomed.info/sct",
              "code": "73761001",
              "display": "Colonoscopy"
            }
          ],
          "text": "Colonic polypectomy"
        },
        "bodySite": [
          {
            "coding": [
              {
                "system": "urn:oid:2.16.840.1.113883.3.88.12.3221.8.9",
                "code": "appropriate_code",
                "display": "colon"
              }
            ]
          }
        ],
        "date": {
          "start": "2012-05-12Z"
        }
      }
    },
    {
      "title": "Procedure Entry",
      "id": "cid:entryd9e4583",
      "updated": "2014-08-26T00:00:00",
      "content": {
        "resourceType": "Procedure",
        "extension": [
          {
            "url": "http://camara.lantanagroup.com/fhir/Profile/ProfileId",
            "valueCode": "http://www.lantanagroup.com/camara/fhir/procedure-activity"
          }
        ],
        "identifier": [
          {
            "label": "Unknown ID type",
            "system": "urn:oid:2.16.840.1.113883.19",
            "value": "123456789"
          }
        ],
        "subject": {
          "display": "Jones, Isabella Isa",
          "reference": "cid:d9e40"
        },
        "type": {
          "coding": [
            {
              "system": "http://snomed.info/sct",
              "code": "274025005",
              "display": "Colonic polypectomy"
            }
          ],
          "text": "Colonic polypectomy"
        },
        "bodySite": [
          {
            "coding": [
              {
                "system": "http://snomed.info/sct",
                "code": "416949008",
                "display": "Abdomen and pelvis"
              }
            ]
          }
        ],
        "date": {
          "start": "2011-02-03Z"
        }
      }
    },
    {
      "title": "Procedure Entry",
      "id": "cid:entryd9e4696",
      "updated": "2014-08-26T00:00:00",
      "content": {
        "resourceType": "Procedure",
        "extension": [
          {
            "url": "http://camara.lantanagroup.com/fhir/Profile/ProfileId",
            "valueCode": "http://www.lantanagroup.com/camara/fhir/procedure-activity"
          }
        ],
        "identifier": [
          {
            "label": "Unknown ID type",
            "system": "urn:oid:1.2.3.4.5.6.7.8",
            "value": "1234567"
          }
        ],
        "subject": {
          "display": "Jones, Isabella Isa",
          "reference": "cid:d9e40"
        },
        "type": {
          "coding": [
            {
              "system": "http://snomed.info/sct",
              "code": "274025005",
              "display": "Colonic polypectomy"
            }
          ],
          "text": "Colonic polypectomy"
        },
        "date": {
          "start": "2011-02-03Z"
        }
      }
    },
    {
      "title": "RESULTS (section)",
      "id": "cid:d9e4807",
      "updated": "2014-08-26T00:00:00",
      "content": {
        "resourceType": "List",
        "extension": [
          {
            "url": "http://camara.lantanagroup.com/fhir/Profile/ProfileId",
            "valueCode": "http://www.lantanagroup.com/camara/fhir/results-section"
          },
          {
            "url": "http://camara.lantanagroup.com/fhir/Profile/ProfileId",
            "valueCode": "http://www.lantanagroup.com/camara/fhir/results-section"
          }
        ],
        "text": {
          "div": "<div><div class=\"additional\"/><div class=\"custom\"/><hr/></div>",
          "status": "generated"
        },
        "code": {
          "coding": [
            {
              "system": "http://loinc.org",
              "code": "30954-2",
              "display": "RESULTS"
            }
          ]
        },
        "mode": "working",
        "entry": [
          {
            "item": {
              "reference": "cid:entryd9e5002"
            }
          }
        ]
      }
    },
    {
      "title": "Results Organizer",
      "id": "cid:entryd9e5002",
      "updated": "2014-08-26T00:00:00",
      "content": {
        "resourceType": "List",
        "extension": [
          {
            "url": "http://camara.lantanagroup.com/fhir/Profile/ProfileId",
            "valueCode": "http://www.lantanagroup.com/camara/fhir/results-organizer"
          }
        ],
        "identifier": [
          {
            "label": "Unknown ID type",
            "system": "urn:uuid:7d5a02b0-67a4-11db-bd13-0800200c9a66"
          }
        ],
        "code": {
          "coding": [
            {
              "system": "http://snomed.info/sct",
              "code": "43789009",
              "display": "CBC WO DIFFERENTIAL"
            }
          ]
        },
        "mode": "snapshot",
        "entry": [
          {
            "item": {
              "reference": "cid:subEntryd9e5017"
            }
          },
          {
            "item": {
              "reference": "cid:subEntryd9e5054"
            }
          },
          {
            "item": {
              "reference": "cid:subEntryd9e5095"
            }
          }
        ]
      }
    },
    {
      "title": "Results Observation",
      "id": "cid:subEntryd9e5017",
      "updated": "2014-08-26T00:00:00",
      "content": {
        "resourceType": "Observation",
        "extension": [
          {
            "url": "http://camara.lantanagroup.com/fhir/Profile/ProfileId",
            "valueCode": "http://www.lantanagroup.com/camara/fhir/result-observation"
          }
        ],
        "text": {
          "div": "HGB (M 13-18 g/dl; F 12-16 g/dl)",
          "status": "additional"
        },
        "name": {
          "coding": [
            {
              "system": "http://loinc.org",
              "code": "30313-1",
              "display": "HGB"
            }
          ]
        },
        "valueQuantity": {
          "value": "13.2",
          "units": "g/dl"
        },
        "appliesDateTime": "2000-03-23T14:30Z",
        "status": "final",
        "reliability": "ok",
        "identifier": {
          "label": "Unknown ID type",
          "system": "urn:uuid:107c2dc0-67a5-11db-bd13-0800200c9a66"
        }
      }
    },
    {
      "title": "Results Observation",
      "id": "cid:subEntryd9e5054",
      "updated": "2014-08-26T00:00:00",
      "content": {
        "resourceType": "Observation",
        "extension": [
          {
            "url": "http://camara.lantanagroup.com/fhir/Profile/ProfileId",
            "valueCode": "http://www.lantanagroup.com/camara/fhir/result-observation"
          }
        ],
        "text": {
          "div": "WBC (4.3-10.8 10+3/ul)",
          "status": "additional"
        },
        "name": {
          "coding": [
            {
              "system": "http://loinc.org",
              "code": "33765-9",
              "display": "WBC"
            }
          ]
        },
        "valueQuantity": {
          "value": "6.7",
          "units": "10+3/ul"
        },
        "appliesDateTime": "2000-03-23T14:30Z",
        "status": "final",
        "reliability": "ok",
        "identifier": {
          "label": "Unknown ID type",
          "system": "urn:uuid:107c2dc0-67a5-11db-bd13-0800200c9a66"
        }
      }
    },
    {
      "title": "Results Observation",
      "id": "cid:subEntryd9e5095",
      "updated": "2014-08-26T00:00:00",
      "content": {
        "resourceType": "Observation",
        "extension": [
          {
            "url": "http://camara.lantanagroup.com/fhir/Profile/ProfileId",
            "valueCode": "http://www.lantanagroup.com/camara/fhir/result-observation"
          }
        ],
        "text": {
          "div": "PLT (135-145 meq/l)",
          "status": "additional"
        },
        "name": {
          "coding": [
            {
              "system": "http://loinc.org",
              "code": "26515-7",
              "display": "PLT"
            }
          ]
        },
        "valueQuantity": {
          "value": "123",
          "units": "10+3/ul"
        },
        "appliesDateTime": "2000-03-23T14:30Z",
        "status": "final",
        "reliability": "ok",
        "identifier": {
          "label": "Unknown ID type",
          "system": "urn:uuid:107c2dc0-67a5-11db-bd13-0800200c9a66"
        }
      }
    },
    {
      "title": "SOCIAL HISTORY (section)",
      "id": "cid:d9e5142",
      "updated": "2014-08-26T00:00:00",
      "content": {
        "resourceType": "List",
        "extension": [
          {
            "url": "http://camara.lantanagroup.com/fhir/Profile/ProfileId",
            "valueCode": "http://www.lantanagroup.com/camara/fhir/social-history-section"
          }
        ],
        "text": {
          "div": "<div><div class=\"additional\"/><div class=\"custom\"/><hr/></div>",
          "status": "generated"
        },
        "code": {
          "coding": [
            {
              "system": "http://loinc.org",
              "code": "29762-2",
              "display": "Social History"
            }
          ]
        },
        "mode": "working"
      }
    },
    {
      "title": "VITAL SIGNS (section)",
      "id": "cid:d9e5347",
      "updated": "2014-08-26T00:00:00",
      "content": {
        "resourceType": "List",
        "extension": [
          {
            "url": "http://camara.lantanagroup.com/fhir/Profile/ProfileId",
            "valueCode": "http://www.lantanagroup.com/camara/fhir/vital-signs-section"
          },
          {
            "url": "http://camara.lantanagroup.com/fhir/Profile/ProfileId",
            "valueCode": "http://www.lantanagroup.com/camara/fhir/vital-signs-section"
          }
        ],
        "text": {
          "div": "<div><div class=\"additional\"/><div class=\"custom\"/><hr/></div>",
          "status": "generated"
        },
        "code": {
          "coding": [
            {
              "system": "http://loinc.org",
              "code": "8716-3",
              "display": "VITAL SIGNS"
            }
          ]
        },
        "mode": "working",
        "entry": [
          {
            "item": {
              "reference": "cid:entryd9e5443"
            }
          },
          {
            "item": {
              "reference": "cid:entryd9e5546"
            }
          }
        ]
      }
    },
    {
      "title": "Vital Signs Organizer Entry",
      "id": "cid:entryd9e5443",
      "updated": "2014-08-26T00:00:00",
      "content": {
        "resourceType": "List",
        "extension": [
          {
            "url": "http://camara.lantanagroup.com/fhir/Profile/ProfileId",
            "valueCode": "http://www.lantanagroup.com/camara/fhir/vital-signs-organizer"
          }
        ],
        "identifier": [
          {
            "label": "Unknown ID type",
            "system": "urn:uuid:c6f88320-67ad-11db-bd13-0800200c9a66"
          }
        ],
        "code": {
          "coding": [
            {
              "system": "http://snomed.info/sct",
              "code": "46680005",
              "display": "Vital signs"
            }
          ]
        },
        "date": "1999-11-14Z",
        "mode": "snapshot",
        "entry": [
          {
            "item": {
              "reference": "cid:subEntryd9e5460"
            }
          },
          {
            "item": {
              "reference": "cid:subEntryd9e5488"
            }
          },
          {
            "item": {
              "reference": "cid:subEntryd9e5516"
            }
          }
        ]
      }
    },
    {
      "title": "Vital Signs Observation Entry",
      "id": "cid:subEntryd9e5460",
      "updated": "2014-08-26T00:00:00",
      "content": {
        "resourceType": "Observation",
        "extension": [
          {
            "url": "http://camara.lantanagroup.com/fhir/Profile/ProfileId",
            "valueCode": "http://www.lantanagroup.com/camara/fhir/vital-signs-observation"
          }
        ],
        "name": {
          "coding": [
            {
              "system": "http://loinc.org",
              "code": "8302-2",
              "display": "Height"
            }
          ]
        },
        "valueQuantity": {
          "value": "177",
          "units": "cm"
        },
        "appliesDateTime": "1999-11-14Z",
        "status": "final",
        "reliability": "ok",
        "identifier": {
          "label": "Unknown ID type",
          "system": "urn:uuid:c6f88321-67ad-11db-bd13-0800200c9a66"
        }
      }
    },
    {
      "title": "Vital Signs Observation Entry",
      "id": "cid:subEntryd9e5488",
      "updated": "2014-08-26T00:00:00",
      "content": {
        "resourceType": "Observation",
        "extension": [
          {
            "url": "http://camara.lantanagroup.com/fhir/Profile/ProfileId",
            "valueCode": "http://www.lantanagroup.com/camara/fhir/vital-signs-observation"
          }
        ],
        "name": {
          "coding": [
            {
              "system": "http://loinc.org",
              "code": "3141-9",
              "display": "Patient Body Weight - Measured"
            }
          ]
        },
        "valueQuantity": {
          "value": "86",
          "units": "kg"
        },
        "appliesDateTime": "1999-11-14Z",
        "status": "final",
        "reliability": "ok",
        "identifier": {
          "label": "Unknown ID type",
          "system": "urn:uuid:c6f88321-67ad-11db-bd13-0800200c9a66"
        }
      }
    },
    {
      "title": "Vital Signs Observation Entry",
      "id": "cid:subEntryd9e5516",
      "updated": "2014-08-26T00:00:00",
      "content": {
        "resourceType": "Observation",
        "extension": [
          {
            "url": "http://camara.lantanagroup.com/fhir/Profile/ProfileId",
            "valueCode": "http://www.lantanagroup.com/camara/fhir/vital-signs-observation"
          }
        ],
        "name": {
          "coding": [
            {
              "system": "http://loinc.org",
              "code": "8480-6",
              "display": "Intravascular Systolic"
            }
          ]
        },
        "valueQuantity": {
          "value": "132",
          "units": "mm[Hg]"
        },
        "appliesDateTime": "1999-11-14Z",
        "status": "final",
        "reliability": "ok",
        "identifier": {
          "label": "Unknown ID type",
          "system": "urn:uuid:c6f88321-67ad-11db-bd13-0800200c9a66"
        }
      }
    },
    {
      "title": "Vital Signs Organizer Entry",
      "id": "cid:entryd9e5546",
      "updated": "2014-08-26T00:00:00",
      "content": {
        "resourceType": "List",
        "extension": [
          {
            "url": "http://camara.lantanagroup.com/fhir/Profile/ProfileId",
            "valueCode": "http://www.lantanagroup.com/camara/fhir/vital-signs-organizer"
          }
        ],
        "identifier": [
          {
            "label": "Unknown ID type",
            "system": "urn:uuid:c6f88320-67ad-11db-bd13-0800200c9a66"
          }
        ],
        "code": {
          "coding": [
            {
              "system": "http://snomed.info/sct",
              "code": "46680005",
              "display": "Vital signs"
            }
          ]
        },
        "date": "2000-04-07Z",
        "mode": "snapshot",
        "entry": [
          {
            "item": {
              "reference": "cid:subEntryd9e5563"
            }
          },
          {
            "item": {
              "reference": "cid:subEntryd9e5591"
            }
          },
          {
            "item": {
              "reference": "cid:subEntryd9e5619"
            }
          }
        ]
      }
    },
    {
      "title": "Vital Signs Observation Entry",
      "id": "cid:subEntryd9e5563",
      "updated": "2014-08-26T00:00:00",
      "content": {
        "resourceType": "Observation",
        "extension": [
          {
            "url": "http://camara.lantanagroup.com/fhir/Profile/ProfileId",
            "valueCode": "http://www.lantanagroup.com/camara/fhir/vital-signs-observation"
          }
        ],
        "name": {
          "coding": [
            {
              "system": "http://loinc.org",
              "code": "8302-2",
              "display": "Height"
            }
          ]
        },
        "valueQuantity": {
          "value": "177",
          "units": "cm"
        },
        "appliesDateTime": "2000-04-07Z",
        "status": "final",
        "reliability": "ok",
        "identifier": {
          "label": "Unknown ID type",
          "system": "urn:uuid:c6f88321-67ad-11db-bd13-0800200c9a66"
        }
      }
    },
    {
      "title": "Vital Signs Observation Entry",
      "id": "cid:subEntryd9e5591",
      "updated": "2014-08-26T00:00:00",
      "content": {
        "resourceType": "Observation",
        "extension": [
          {
            "url": "http://camara.lantanagroup.com/fhir/Profile/ProfileId",
            "valueCode": "http://www.lantanagroup.com/camara/fhir/vital-signs-observation"
          }
        ],
        "name": {
          "coding": [
            {
              "system": "http://loinc.org",
              "code": "3141-9",
              "display": "Patient Body Weight - Measured"
            }
          ]
        },
        "valueQuantity": {
          "value": "88",
          "units": "kg"
        },
        "appliesDateTime": "2000-04-07Z",
        "status": "final",
        "reliability": "ok",
        "identifier": {
          "label": "Unknown ID type",
          "system": "urn:uuid:c6f88321-67ad-11db-bd13-0800200c9a66"
        }
      }
    },
    {
      "title": "Vital Signs Observation Entry",
      "id": "cid:subEntryd9e5619",
      "updated": "2014-08-26T00:00:00",
      "content": {
        "resourceType": "Observation",
        "extension": [
          {
            "url": "http://camara.lantanagroup.com/fhir/Profile/ProfileId",
            "valueCode": "http://www.lantanagroup.com/camara/fhir/vital-signs-observation"
          }
        ],
        "name": {
          "coding": [
            {
              "system": "http://loinc.org",
              "code": "8480-6",
              "display": "Intravascular Systolic"
            }
          ]
        },
        "valueQuantity": {
          "value": "145",
          "units": "mm[Hg]"
        },
        "appliesDateTime": "2000-04-07Z",
        "status": "final",
        "reliability": "ok",
        "identifier": {
          "label": "Unknown ID type",
          "system": "urn:uuid:c6f88321-67ad-11db-bd13-0800200c9a66"
        }
      }
    }
  ]
}