{
  "resourceType": "Bundle",
  "title": "Resource Assembly",
  "updated": "2016-03-21T16:57:01.917Z",
  "id": "urn:uuid:90ebc043-160e-4006-a8ab-d4431a0a4381",
  "link": [
    "/fhir/List/b25cac92-dc72-4188-8610-16f7c1677bdf/$assemble"
  ],
  "totalResults": 10,
  "entry": [
    {
      "title": "Entry 0 for bundle",
      "id": "https://localhost:11444/fhir/List/b25cac92-dc72-4188-8610-16f7c1677bdf",
      "link": [
        {
          "href": "https://localhost:11444/fhir/List/b25cac92-dc72-4188-8610-16f7c1677bdf",
          "rel": "self"
        }
      ],
      "content": {
        "resourceType": "List",
        "extension": [
          {
            "url": "http://camara.lantanagroup.com/fhir/Profile/ProfileId",
            "valueCode": "http://www.lantanagroup.com/camara/fhir/procedures-section"
          }
        ],
        "text": {
          "div": "<div><div><div class=\"custom\"></div><div class=\"additional\"><table><thead><tr><th>Type</th><th>Date</th></tr></thead><tbody><tr></tr><tr></tr><tr><td>Colonoscopy</td><td>May 12 2012</td></tr><tr></tr><tr></tr><tr><td>Colonic polypectomy</td><td>Abdomen and pelvis</td><td>Feb 03 2011</td></tr><tr></tr><tr></tr><tr><td>Colonic polypectomy</td><td>Feb 03 2011</td></tr></tbody></table></div><hr /></div></div>",
          "status": "generated"
        },
        "code": {
          "coding": [
            {
              "system": "urn:oid:2.16.840.1.113883.6.1",
              "code": "47519-4",
              "display": "History of Procedures"
            }
          ]
        },
        "mode": "snapshot",
        "entry": [
          {
            "item": {
              "reference": "https://localhost:11444/fhir/Procedure/755ab9b8-08f3-437c-8e61-5418165299a6",
              "display": "Colonoscopy"
            }
          },
          {
            "item": {
              "reference": "https://localhost:11444/fhir/Procedure/b8ae42e3-5460-4c80-8325-09049214262a",
              "display": "Colonic polypectomy"
            }
          },
          {
            "item": {
              "reference": "https://localhost:11444/fhir/Procedure/5f1b7c27-d61c-4f9f-b743-e1dad391a782",
              "display": "Colonic polypectomy"
            }
          }
        ]
      }
    },
    {
      "title": "Entry 1 for bundle",
      "id": "https://localhost:11444/fhir/Procedure/755ab9b8-08f3-437c-8e61-5418165299a6",
      "link": [
        {
          "href": "https://localhost:11444/fhir/Procedure/755ab9b8-08f3-437c-8e61-5418165299a6",
          "rel": "self"
        }
      ],
      "content": {
        "resourceType": "Procedure",
        "extension": [
          {
            "url": "http://camara.lantanagroup.com/fhir/Profile/ProfileId",
            "valueCode": "http://www.lantanagroup.com/camara/fhir/procedure-activity"
          }
        ],
        "identifier": [
          {
            "label": "Unknown ID type",
            "system": "urn:uuid:d68b7e32-7810-4f5b-9cc2-acd54b0fd85d"
          }
        ],
        "subject": {
          "display": "Jones, Isabella Isa",
          "reference": "https://localhost:11444/fhir/Patient/d63d49f4-d5cd-4a05-be5f-37418a6455f8"
        },
        "type": {
          "coding": [
            {
              "system": "http://snomed.info/sct",
              "code": "73761001",
              "display": "Colonoscopy"
            }
          ],
          "text": "Colonic polypectomy"
        },
        "date": {
          "start": "2012-05-12T00:00:00Z"
        }
      }
    },
    {
      "title": "Entry 2 for bundle",
      "id": "https://localhost:11444/fhir/Procedure/b8ae42e3-5460-4c80-8325-09049214262a",
      "link": [
        {
          "href": "https://localhost:11444/fhir/Procedure/b8ae42e3-5460-4c80-8325-09049214262a",
          "rel": "self"
        }
      ],
      "content": {
        "resourceType": "Procedure",
        "extension": [
          {
            "url": "http://camara.lantanagroup.com/fhir/Profile/ProfileId",
            "valueCode": "http://www.lantanagroup.com/camara/fhir/procedure-activity"
          }
        ],
        "identifier": [
          {
            "label": "Unknown ID type",
            "system": "urn:oid:2.16.840.1.113883.19",
            "value": "123456789"
          }
        ],
        "subject": {
          "display": "Jones, Isabella Isa",
          "reference": "https://localhost:11444/fhir/Patient/d63d49f4-d5cd-4a05-be5f-37418a6455f8"
        },
        "type": {
          "coding": [
            {
              "system": "http://snomed.info/sct",
              "code": "274025005",
              "display": "Colonic polypectomy"
            }
          ],
          "text": "Colonic polypectomy"
        },
        "bodySite": [
          {
            "coding": [
              {
                "system": "http://snomed.info/sct",
                "code": "416949008",
                "display": "Abdomen and pelvis"
              }
            ]
          }
        ],
        "date": {
          "start": "2011-02-03T00:00:00Z"
        }
      }
    },
    {
      "title": "Entry 3 for bundle",
      "id": "https://localhost:11444/fhir/Procedure/5f1b7c27-d61c-4f9f-b743-e1dad391a782",
      "link": [
        {
          "href": "https://localhost:11444/fhir/Procedure/5f1b7c27-d61c-4f9f-b743-e1dad391a782",
          "rel": "self"
        }
      ],
      "content": {
        "resourceType": "Procedure",
        "extension": [
          {
            "url": "http://camara.lantanagroup.com/fhir/Profile/ProfileId",
            "valueCode": "http://www.lantanagroup.com/camara/fhir/procedure-activity"
          }
        ],
        "identifier": [
          {
            "label": "Unknown ID type",
            "system": "urn:oid:1.2.3.4.5.6.7.8",
            "value": "1234567"
          }
        ],
        "subject": {
          "display": "Jones, Isabella Isa",
          "reference": "https://localhost:11444/fhir/Patient/d63d49f4-d5cd-4a05-be5f-37418a6455f8"
        },
        "type": {
          "coding": [
            {
              "system": "http://snomed.info/sct",
              "code": "274025005",
              "display": "Colonic polypectomy"
            }
          ],
          "text": "Colonic polypectomy"
        },
        "date": {
          "start": "2011-02-03T00:00:00Z"
        }
      }
    },
    {
      "title": "Entry 4 for bundle",
      "id": "https://localhost:11444/fhir/Patient/d63d49f4-d5cd-4a05-be5f-37418a6455f8",
      "link": [
        {
          "href": "https://localhost:11444/fhir/Patient/d63d49f4-d5cd-4a05-be5f-37418a6455f8",
          "rel": "self"
        }
      ],
      "content": {
        "resourceType": "Patient",
        "extension": [
          {
            "url": "http://camara.lantanagroup.com/fhir/Profile/ProfileId",
            "valueCode": "http://www.lantanagroup.com/camara/fhir/us-realm-patient"
          },
          {
            "url": "http://hl7.org/fhir/Profile/us-core#race",
            "valueCodeableConcept": {
              "coding": [
                {
                  "system": "urn:oid:2.16.840.1.113883.6.238",
                  "code": "1966-1",
                  "display": "Aleut"
                }
              ]
            }
          },
          {
            "url": "http://hl7.org/fhir/Profile/us-core#ethnicity",
            "valueCodeableConcept": {
              "coding": [
                {
                  "system": "urn:oid:2.16.840.1.113883.12.189",
                  "code": "N",
                  "display": "Not Hispanic or Latino"
                }
              ]
            }
          },
          {
            "url": "http://hl7.org/fhir/Profile/us-core#religion",
            "valueCodeableConcept": {
              "coding": [
                {
                  "system": "urn:oid:2.16.840.1.113883.5.1076",
                  "code": "1013",
                  "display": "Christian (non-Catholic, non-specific)"
                }
              ]
            }
          }
        ],
        "identifier": [
          {
            "label": "Unknown ID type",
            "system": "urn:oid:2.16.840.1.113883.19.5.99999.2",
            "value": "998991"
          },
          {
            "system": "http://hl7.org/fhir/sid/us-ssn",
            "value": "http://hl7.org/fhir/sid/us-ssn/111-00-2330"
          }
        ],
        "name": [
          {
            "text": "Jones, Isabella Isa",
            "family": [
              "Jones"
            ],
            "given": [
              "Isabella",
              "Isa"
            ]
          }
        ],
        "telecom": [
          {
            "system": "phone",
            "value": "(816)276-6909",
            "use": "home"
          }
        ],
        "gender": {
          "coding": [
            {
              "system": "urn:oid:2.16.840.1.113883.12.1",
              "code": "F",
              "display": "Female"
            }
          ]
        },
        "birthDate": "2005-05-01",
        "address": [
          {
            "use": "home",
            "line": [
              "1357 Amber Drive"
            ],
            "city": "Beaverton",
            "state": "OR",
            "zip": "97867",
            "country": "US"
          }
        ],
        "contact": [
          {
            "relationship": [
              {
                "coding": [
                  {
                    "system": "urn:oid:2.16.840.1.113883.5.111",
                    "code": "GRPRN",
                    "display": "Grandparent"
                  }
                ],
                "text": "Grandparent"
              }
            ],
            "name": {
              "text": "Jones, Ralph",
              "family": [
                "Jones"
              ],
              "given": [
                "Ralph"
              ]
            },
            "telecom": [
              {
                "system": "phone",
                "value": "(816)276-6909",
                "use": "home"
              }
            ],
            "address": {
              "use": "home",
              "line": [
                "1357 Amber Drive"
              ],
              "city": "Beaverton",
              "state": "OR",
              "zip": "97867",
              "country": "US"
            }
          }
        ],
        "communication": [
          {
            "coding": [
              {
                "system": "urn:oid:2.16.840.1.113883.6.121",
                "code": "en",
                "display": "English"
              }
            ]
          }
        ],
        "text": {
          "div": "<div>Jones, Isabella Isa</div>",
          "status": "generated"
        },
        "maritalStatus": {
          "coding": [
            {
              "system": "http://hl7.org/fhir/v3/MaritalStatus",
              "code": "M",
              "display": "Married"
            }
          ]
        },
        "managingOrganization": {
          "display": "Community Health and Hospitals",
          "reference": "https://localhost:11444/fhir/Organization/e05e8e95-493b-4446-b696-1742d7377b7f"
        }
      }
    },
    {
      "title": "Entry 5 for bundle",
      "id": "https://localhost:11444/fhir/Organization/e05e8e95-493b-4446-b696-1742d7377b7f",
      "link": [
        {
          "href": "https://localhost:11444/fhir/Organization/e05e8e95-493b-4446-b696-1742d7377b7f",
          "rel": "self"
        }
      ],
      "content": {
        "resourceType": "Organization",
        "extension": [
          {
            "url": "http://camara.lantanagroup.com/fhir/Profile/ProfileId",
            "valueCode": "http://www.lantanagroup.com/camara/fhir/us-realm-custodian"
          }
        ],
        "identifier": [
          {
            "label": "Unknown ID type",
            "system": "urn:oid:2.16.840.1.113883.19.5.9999.1393"
          }
        ],
        "name": "Community Health and Hospitals",
        "telecom": [
          {
            "system": "phone",
            "value": " 555-555-5000",
            "use": "work"
          }
        ],
        "address": [
          {
            "line": [
              "1001 Village Avenue"
            ],
            "city": "Portland",
            "state": "OR",
            "zip": "99123",
            "country": "US"
          }
        ]
      }
    },
    {
      "title": "Entry 6 for bundle",
      "id": "https://localhost:11444/fhir/fhir/Profile/32f52e88-83df-4960-8be7-417d9871a697/_history/5c3d2f1d-c024-4a1d-9d35-fd44e047fa56",
      "link": [
        {
          "href": "https://localhost:11444/fhir/fhir/Profile/32f52e88-83df-4960-8be7-417d9871a697/_history/5c3d2f1d-c024-4a1d-9d35-fd44e047fa56",
          "rel": "self"
        }
      ],
      "content": {
        "resourceType": "Profile",
        "extension": [
          {
            "url": "urn:lantanagroup.com/fhirExtension/implementationGuideName",
            "valueString": "Camara Consolidation V1.1"
          }
        ],
        "text": {
          "status": "generated",
          "div": "<div>&lt;xhtml:div xmlns:xhtml=&quot;http://www.w3.org/1999/xhtml&quot;&gt;&lt;xhtml:p&gt;Procedures Section&lt;/xhtml:p&gt;&lt;xhtml:ol&gt;&lt;li xmlns=&quot;http://www.w3.org/1999/xhtml&quot;&gt;&lt;p&gt;MAY contain zero or one [0..1] id (CONF:X-X).&lt;/p&gt;&lt;/li&gt;&lt;li xmlns=&quot;http://www.w3.org/1999/xhtml&quot;&gt;&lt;p&gt;MAY contain zero or more [0..*] extension (CONF:X-X).&lt;/p&gt;&lt;/li&gt;&lt;li xmlns=&quot;http://www.w3.org/1999/xhtml&quot;&gt;&lt;p&gt;MAY contain zero or more [0..*] modifierExtension (CONF:X-X).&lt;/p&gt;&lt;/li&gt;&lt;li xmlns=&quot;http://www.w3.org/1999/xhtml&quot;&gt;&lt;p&gt;MAY contain zero or one [0..1] language (CONF:X-X).&lt;/p&gt;&lt;/li&gt;&lt;li xmlns=&quot;http://www.w3.org/1999/xhtml&quot;&gt;&lt;p&gt;SHALL contain exactly one [1..1] text (CONF:1150-466).&lt;/p&gt;&lt;/li&gt;&lt;li xmlns=&quot;http://www.w3.org/1999/xhtml&quot;&gt;&lt;p&gt;MAY contain zero or more [0..*] contained (CONF:X-X).&lt;/p&gt;&lt;/li&gt;&lt;li xmlns=&quot;http://www.w3.org/1999/xhtml&quot;&gt;&lt;p&gt;MAY contain zero or more [0..*] identifier (CONF:X-X).&lt;/p&gt;&lt;/li&gt;&lt;li xmlns=&quot;http://www.w3.org/1999/xhtml&quot;&gt;&lt;p&gt;SHALL contain exactly one [1..1] code=&quot;47519-4&quot; History of Procedures (CodeSystem: LOINC urn:oid:2.16.840.1.113883.6.1) (CONF:1150-467).&lt;/p&gt;&lt;/li&gt;&lt;li xmlns=&quot;http://www.w3.org/1999/xhtml&quot;&gt;&lt;p&gt;MAY contain zero or one [0..1] subject (CONF:X-X).&lt;/p&gt;&lt;/li&gt;&lt;li xmlns=&quot;http://www.w3.org/1999/xhtml&quot;&gt;&lt;p&gt;MAY contain zero or one [0..1] source (CONF:X-X).&lt;/p&gt;&lt;/li&gt;&lt;li xmlns=&quot;http://www.w3.org/1999/xhtml&quot;&gt;&lt;p&gt;MAY contain zero or one [0..1] date (CONF:X-X).&lt;/p&gt;&lt;/li&gt;&lt;li xmlns=&quot;http://www.w3.org/1999/xhtml&quot;&gt;&lt;p&gt;MAY contain zero or one [0..1] ordered (CONF:X-X).&lt;/p&gt;&lt;/li&gt;&lt;li xmlns=&quot;http://www.w3.org/1999/xhtml&quot;&gt;&lt;p&gt;SHALL contain exactly one [1..1] mode=&quot;snapshot&quot; (CONF:1150-767).&lt;/p&gt;&lt;/li&gt;&lt;li xmlns=&quot;http://www.w3.org/1999/xhtml&quot;&gt;&lt;p&gt;MAY contain zero or more [0..*] entry (CONF:1150-468) such that it&lt;/p&gt;&lt;ol&gt;&lt;li&gt;&lt;p&gt;SHALL contain exactly one [1..1] Procedure Activity (identifier: http://www.lantanagroup.com/camara/fhir/procedure-activity) (CONF:1150-607).&lt;/p&gt;&lt;/li&gt;&lt;/ol&gt;&lt;/li&gt;&lt;li xmlns=&quot;http://www.w3.org/1999/xhtml&quot;&gt;&lt;p&gt;MAY contain zero or one [0..1] emptyReason (CONF:X-X).&lt;/p&gt;&lt;/li&gt;&lt;/xhtml:ol&gt;&lt;/xhtml:div&gt;</div>"
        },
        "identifier": "http://www.lantanagroup.com/camara/fhir/procedures-section",
        "name": "Procedures Section",
        "publisher": "LCG",
        "status": "draft",
        "fhirVersion": "0.8",
        "structure": [
          {
            "type": "List",
            "element": [
              {
                "path": "List.id",
                "definition": {
                  "short": "id",
                  "formal": "id",
                  "min": 0,
                  "max": "1",
                  "constraint": [
                    {
                      "key": "0",
                      "name": "id",
                      "severity": "warning",
                      "human": "MAY contain zero or one [0..1] id (CONF:X-X).",
                      "xpath": "count(List/id)>=0 and count(List/id)<=1"
                    }
                  ],
                  "mustSupport": false,
                  "isModifier": false
                }
              },
              {
                "path": "List.extension",
                "definition": {
                  "short": "extension",
                  "formal": "extension",
                  "min": 0,
                  "max": "*",
                  "constraint": [
                    {
                      "key": "0",
                      "name": "extension",
                      "severity": "warning",
                      "human": "MAY contain zero or more [0..*] extension (CONF:X-X).",
                      "xpath": "count(List/extension)>=0"
                    }
                  ],
                  "mustSupport": false,
                  "isModifier": false
                }
              },
              {
                "path": "List.modifierExtension",
                "definition": {
                  "short": "modifierExtension",
                  "formal": "modifierExtension",
                  "min": 0,
                  "max": "*",
                  "constraint": [
                    {
                      "key": "0",
                      "name": "modifierExtension",
                      "severity": "warning",
                      "human": "MAY contain zero or more [0..*] modifierExtension (CONF:X-X).",
                      "xpath": "count(List/modifierExtension)>=0"
                    }
                  ],
                  "mustSupport": false,
                  "isModifier": false
                }
              },
              {
                "path": "List.language",
                "definition": {
                  "short": "language",
                  "formal": "language",
                  "min": 0,
                  "max": "1",
                  "constraint": [
                    {
                      "key": "0",
                      "name": "language",
                      "severity": "warning",
                      "human": "MAY contain zero or one [0..1] language (CONF:X-X).",
                      "xpath": "count(List/language)>=0 and count(List/language)<=1"
                    }
                  ],
                  "mustSupport": false,
                  "isModifier": false
                }
              },
              {
                "path": "List.text",
                "definition": {
                  "short": "Narrative",
                  "formal": "text",
                  "min": 1,
                  "max": "1",
                  "constraint": [
                    {
                      "key": "466",
                      "name": "text",
                      "severity": "error",
                      "human": "SHALL contain exactly one [1..1] text (CONF:1150-466).",
                      "xpath": "count(List/text)>=1 and count(List/text)<=1"
                    }
                  ],
                  "mustSupport": true,
                  "isModifier": false
                }
              },
              {
                "path": "List.contained",
                "definition": {
                  "short": "contained",
                  "formal": "contained",
                  "min": 0,
                  "max": "*",
                  "constraint": [
                    {
                      "key": "0",
                      "name": "contained",
                      "severity": "warning",
                      "human": "MAY contain zero or more [0..*] contained (CONF:X-X).",
                      "xpath": "count(List/contained)>=0"
                    }
                  ],
                  "mustSupport": false,
                  "isModifier": false
                }
              },
              {
                "path": "List.identifier",
                "definition": {
                  "short": "identifier",
                  "formal": "identifier",
                  "min": 0,
                  "max": "*",
                  "constraint": [
                    {
                      "key": "0",
                      "name": "identifier",
                      "severity": "warning",
                      "human": "MAY contain zero or more [0..*] identifier (CONF:X-X).",
                      "xpath": "count(List/identifier)>=0"
                    }
                  ],
                  "mustSupport": false,
                  "isModifier": false
                }
              },
              {
                "path": "List.code",
                "definition": {
                  "short": "code",
                  "formal": "code",
                  "min": 1,
                  "max": "1",
                  "valueCodeableConcept": {
                    "coding": [
                      {
                        "system": "urn:oid:2.16.840.1.113883.6.1",
                        "code": "47519-4",
                        "display": "History of Procedures"
                      }
                    ]
                  },
                  "constraint": [
                    {
                      "key": "467",
                      "name": "code",
                      "severity": "error",
                      "human": "SHALL contain exactly one [1..1] code=\"47519-4\" History of Procedures (CodeSystem: LOINC urn:oid:2.16.840.1.113883.6.1) (CONF:1150-467).",
                      "xpath": "count(List/code)>=1 and count(List/code)<=1"
                    }
                  ],
                  "mustSupport": true,
                  "isModifier": false
                }
              },
              {
                "path": "List.subject",
                "definition": {
                  "short": "subject",
                  "formal": "subject",
                  "min": 0,
                  "max": "1",
                  "constraint": [
                    {
                      "key": "0",
                      "name": "subject",
                      "severity": "warning",
                      "human": "MAY contain zero or one [0..1] subject (CONF:X-X).",
                      "xpath": "count(List/subject)>=0 and count(List/subject)<=1"
                    }
                  ],
                  "mustSupport": false,
                  "isModifier": false
                }
              },
              {
                "path": "List.source",
                "definition": {
                  "short": "source",
                  "formal": "source",
                  "min": 0,
                  "max": "1",
                  "constraint": [
                    {
                      "key": "0",
                      "name": "source",
                      "severity": "warning",
                      "human": "MAY contain zero or one [0..1] source (CONF:X-X).",
                      "xpath": "count(List/source)>=0 and count(List/source)<=1"
                    }
                  ],
                  "mustSupport": false,
                  "isModifier": false
                }
              },
              {
                "path": "List.date",
                "definition": {
                  "short": "date",
                  "formal": "date",
                  "min": 0,
                  "max": "1",
                  "constraint": [
                    {
                      "key": "0",
                      "name": "date",
                      "severity": "warning",
                      "human": "MAY contain zero or one [0..1] date (CONF:X-X).",
                      "xpath": "count(List/date)>=0 and count(List/date)<=1"
                    }
                  ],
                  "mustSupport": false,
                  "isModifier": false
                }
              },
              {
                "path": "List.ordered",
                "definition": {
                  "short": "ordered",
                  "formal": "ordered",
                  "min": 0,
                  "max": "1",
                  "constraint": [
                    {
                      "key": "0",
                      "name": "ordered",
                      "severity": "warning",
                      "human": "MAY contain zero or one [0..1] ordered (CONF:X-X).",
                      "xpath": "count(List/ordered)>=0 and count(List/ordered)<=1"
                    }
                  ],
                  "mustSupport": false,
                  "isModifier": false
                }
              },
              {
                "path": "List.mode",
                "definition": {
                  "short": "mode",
                  "formal": "mode",
                  "min": 1,
                  "max": "1",
                  "valueCode": "snapshot",
                  "constraint": [
                    {
                      "key": "767",
                      "name": "mode",
                      "severity": "error",
                      "human": "SHALL contain exactly one [1..1] mode=\"snapshot\" (CONF:1150-767).",
                      "xpath": "count(List/mode)>=1 and count(List/mode)<=1"
                    }
                  ],
                  "mustSupport": true,
                  "isModifier": false
                }
              },
              {
                "path": "List.entry",
                "name": "slice-d3189e0",
                "slicing": {
                  "discriminator": "item",
                  "ordered": false,
                  "rules": "open"
                },
                "definition": {
                  "short": "Coded Data",
                  "formal": "entry",
                  "min": 0,
                  "max": "*",
                  "constraint": [
                    {
                      "key": "468",
                      "name": "entry",
                      "severity": "warning",
                      "human": "MAY contain zero or more [0..*] entry (CONF:1150-468) such that it",
                      "xpath": "count(List/entry)>=0"
                    }
                  ],
                  "mustSupport": true,
                  "isModifier": false
                }
              },
              {
                "path": "List.entry.item",
                "name": "slice-d3189e0",
                "definition": {
                  "short": "item",
                  "formal": "item",
                  "min": 1,
                  "max": "1",
                  "type": [
                    {
                      "code": "Procedure",
                      "profile": "http://www.lantanagroup.com/camara/fhir/procedure-activity"
                    }
                  ],
                  "constraint": [
                    {
                      "key": "607",
                      "name": "item",
                      "severity": "error",
                      "human": "SHALL contain exactly one [1..1] Procedure Activity (identifier: http://www.lantanagroup.com/camara/fhir/procedure-activity) (CONF:1150-607).",
                      "xpath": "count(List/entry/item)>=1 and count(List/entry/item)<=1"
                    }
                  ],
                  "mustSupport": true,
                  "isModifier": false
                }
              },
              {
                "path": "List.emptyReason",
                "definition": {
                  "short": "emptyReason",
                  "formal": "emptyReason",
                  "min": 0,
                  "max": "1",
                  "constraint": [
                    {
                      "key": "0",
                      "name": "emptyReason",
                      "severity": "warning",
                      "human": "MAY contain zero or one [0..1] emptyReason (CONF:X-X).",
                      "xpath": "count(List/emptyReason)>=0 and count(List/emptyReason)<=1"
                    }
                  ],
                  "mustSupport": false,
                  "isModifier": false
                }
              }
            ]
          }
        ]
      }
    },
    {
      "title": "Entry 7 for bundle",
      "id": "https://localhost:11444/fhir/fhir/Profile/91739188-6532-4503-9ebc-b9363b59260c/_history/d1145335-591a-4773-bfea-650ab3929613",
      "link": [
        {
          "href": "https://localhost:11444/fhir/fhir/Profile/91739188-6532-4503-9ebc-b9363b59260c/_history/d1145335-591a-4773-bfea-650ab3929613",
          "rel": "self"
        }
      ],
      "content": {
        "resourceType": "Profile",
        "extension": [
          {
            "url": "urn:lantanagroup.com/fhirExtension/implementationGuideName",
            "valueString": "Camara Consolidation V1.1"
          }
        ],
        "text": {
          "status": "generated",
          "div": "<div>&lt;xhtml:div xmlns:xhtml=&quot;http://www.w3.org/1999/xhtml&quot;&gt;&lt;xhtml:p&gt;Procedure Activity&lt;/xhtml:p&gt;&lt;xhtml:ol&gt;&lt;li xmlns=&quot;http://www.w3.org/1999/xhtml&quot;&gt;&lt;p&gt;MAY contain zero or one [0..1] id (CONF:X-X).&lt;/p&gt;&lt;/li&gt;&lt;li xmlns=&quot;http://www.w3.org/1999/xhtml&quot;&gt;&lt;p&gt;MAY contain zero or more [0..*] extension (CONF:X-X).&lt;/p&gt;&lt;/li&gt;&lt;li xmlns=&quot;http://www.w3.org/1999/xhtml&quot;&gt;&lt;p&gt;MAY contain zero or more [0..*] modifierExtension (CONF:X-X).&lt;/p&gt;&lt;/li&gt;&lt;li xmlns=&quot;http://www.w3.org/1999/xhtml&quot;&gt;&lt;p&gt;MAY contain zero or one [0..1] language (CONF:X-X).&lt;/p&gt;&lt;/li&gt;&lt;li xmlns=&quot;http://www.w3.org/1999/xhtml&quot;&gt;&lt;p&gt;MAY contain zero or one [0..1] text (CONF:X-X).&lt;/p&gt;&lt;/li&gt;&lt;li xmlns=&quot;http://www.w3.org/1999/xhtml&quot;&gt;&lt;p&gt;MAY contain zero or more [0..*] contained (CONF:X-X).&lt;/p&gt;&lt;/li&gt;&lt;li xmlns=&quot;http://www.w3.org/1999/xhtml&quot;&gt;&lt;p&gt;SHALL contain exactly one [1..1] identifier=&quot;#AUTO_GENERATE:HIDE#&quot; (CONF:1150-586).&lt;/p&gt;&lt;/li&gt;&lt;li xmlns=&quot;http://www.w3.org/1999/xhtml&quot;&gt;&lt;p&gt;SHALL contain exactly one [1..1] subject (CONF:X-X).&lt;/p&gt;&lt;/li&gt;&lt;li xmlns=&quot;http://www.w3.org/1999/xhtml&quot;&gt;&lt;p&gt;SHALL contain exactly one [1..1] type (ValueSet: Common Procedures urn:oid:2.16.840.1.113883.3.117.3.12 STATIC 2015-06-04) (CONF:1150-587).&lt;/p&gt;&lt;/li&gt;&lt;li xmlns=&quot;http://www.w3.org/1999/xhtml&quot;&gt;&lt;p&gt;SHOULD contain zero or more [0..*] bodySite, which SHALL be selected from ValueSet Body Site urn:oid:2.16.840.1.113883.3.88.12.3221.8.9 DYNAMIC (CONF:1150-592).&lt;/p&gt;&lt;/li&gt;&lt;li xmlns=&quot;http://www.w3.org/1999/xhtml&quot;&gt;&lt;p&gt;MAY contain zero or more [0..*] indication (CONF:X-X).&lt;/p&gt;&lt;/li&gt;&lt;li xmlns=&quot;http://www.w3.org/1999/xhtml&quot;&gt;&lt;p&gt;SHOULD contain zero or more [0..*] performer (CONF:1150-595).&lt;/p&gt;&lt;ol&gt;&lt;li&gt;&lt;p&gt;The performer, if present, SHALL contain exactly one [1..1] US Realm Author (identifier: http://www.lantanagroup.com/camara/fhir/us-realm-author) (CONF:1150-730).&lt;/p&gt;&lt;/li&gt;&lt;/ol&gt;&lt;/li&gt;&lt;li xmlns=&quot;http://www.w3.org/1999/xhtml&quot;&gt;&lt;p&gt;SHOULD contain zero or one [0..1] date (CONF:1150-588).&lt;/p&gt;&lt;/li&gt;&lt;li xmlns=&quot;http://www.w3.org/1999/xhtml&quot;&gt;&lt;p&gt;MAY contain zero or one [0..1] encounter (CONF:1150-606).&lt;/p&gt;&lt;/li&gt;&lt;li xmlns=&quot;http://www.w3.org/1999/xhtml&quot;&gt;&lt;p&gt;MAY contain zero or one [0..1] outcome (CONF:X-X).&lt;/p&gt;&lt;/li&gt;&lt;li xmlns=&quot;http://www.w3.org/1999/xhtml&quot;&gt;&lt;p&gt;MAY contain zero or more [0..*] report (CONF:X-X).&lt;/p&gt;&lt;/li&gt;&lt;li xmlns=&quot;http://www.w3.org/1999/xhtml&quot;&gt;&lt;p&gt;MAY contain zero or more [0..*] complication (CONF:X-X).&lt;/p&gt;&lt;/li&gt;&lt;li xmlns=&quot;http://www.w3.org/1999/xhtml&quot;&gt;&lt;p&gt;MAY contain zero or one [0..1] followUp (CONF:X-X).&lt;/p&gt;&lt;/li&gt;&lt;li xmlns=&quot;http://www.w3.org/1999/xhtml&quot;&gt;&lt;p&gt;MAY contain zero or more [0..*] relatedItem (CONF:X-X).&lt;/p&gt;&lt;/li&gt;&lt;li xmlns=&quot;http://www.w3.org/1999/xhtml&quot;&gt;&lt;p&gt;MAY contain zero or one [0..1] notes (CONF:X-X).&lt;/p&gt;&lt;/li&gt;&lt;/xhtml:ol&gt;&lt;/xhtml:div&gt;</div>"
        },
        "identifier": "http://www.lantanagroup.com/camara/fhir/procedure-activity",
        "name": "Procedure Activity",
        "publisher": "LCG",
        "status": "draft",
        "fhirVersion": "0.8",
        "structure": [
          {
            "type": "Procedure",
            "element": [
              {
                "path": "Procedure.id",
                "definition": {
                  "short": "id",
                  "formal": "id",
                  "min": 0,
                  "max": "1",
                  "constraint": [
                    {
                      "key": "0",
                      "name": "id",
                      "severity": "warning",
                      "human": "MAY contain zero or one [0..1] id (CONF:X-X).",
                      "xpath": "count(Procedure/id)>=0 and count(Procedure/id)<=1"
                    }
                  ],
                  "mustSupport": false,
                  "isModifier": false
                }
              },
              {
                "path": "Procedure.extension",
                "definition": {
                  "short": "extension",
                  "formal": "extension",
                  "min": 0,
                  "max": "*",
                  "constraint": [
                    {
                      "key": "0",
                      "name": "extension",
                      "severity": "warning",
                      "human": "MAY contain zero or more [0..*] extension (CONF:X-X).",
                      "xpath": "count(Procedure/extension)>=0"
                    }
                  ],
                  "mustSupport": false,
                  "isModifier": false
                }
              },
              {
                "path": "Procedure.modifierExtension",
                "definition": {
                  "short": "modifierExtension",
                  "formal": "modifierExtension",
                  "min": 0,
                  "max": "*",
                  "constraint": [
                    {
                      "key": "0",
                      "name": "modifierExtension",
                      "severity": "warning",
                      "human": "MAY contain zero or more [0..*] modifierExtension (CONF:X-X).",
                      "xpath": "count(Procedure/modifierExtension)>=0"
                    }
                  ],
                  "mustSupport": false,
                  "isModifier": false
                }
              },
              {
                "path": "Procedure.language",
                "definition": {
                  "short": "language",
                  "formal": "language",
                  "min": 0,
                  "max": "1",
                  "constraint": [
                    {
                      "key": "0",
                      "name": "language",
                      "severity": "warning",
                      "human": "MAY contain zero or one [0..1] language (CONF:X-X).",
                      "xpath": "count(Procedure/language)>=0 and count(Procedure/language)<=1"
                    }
                  ],
                  "mustSupport": false,
                  "isModifier": false
                }
              },
              {
                "path": "Procedure.text",
                "definition": {
                  "short": "text",
                  "formal": "text",
                  "min": 0,
                  "max": "1",
                  "constraint": [
                    {
                      "key": "0",
                      "name": "text",
                      "severity": "warning",
                      "human": "MAY contain zero or one [0..1] text (CONF:X-X).",
                      "xpath": "count(Procedure/text)>=0 and count(Procedure/text)<=1"
                    }
                  ],
                  "mustSupport": false,
                  "isModifier": false
                }
              },
              {
                "path": "Procedure.contained",
                "definition": {
                  "short": "contained",
                  "formal": "contained",
                  "min": 0,
                  "max": "*",
                  "constraint": [
                    {
                      "key": "0",
                      "name": "contained",
                      "severity": "warning",
                      "human": "MAY contain zero or more [0..*] contained (CONF:X-X).",
                      "xpath": "count(Procedure/contained)>=0"
                    }
                  ],
                  "mustSupport": false,
                  "isModifier": false
                }
              },
              {
                "path": "Procedure.identifier",
                "definition": {
                  "short": "identifier",
                  "formal": "identifier",
                  "min": 1,
                  "max": "1",
                  "valueCode": "#AUTO_GENERATE:HIDE#",
                  "constraint": [
                    {
                      "key": "586",
                      "name": "identifier",
                      "severity": "error",
                      "human": "SHALL contain exactly one [1..1] identifier=\"#AUTO_GENERATE:HIDE#\" (CONF:1150-586).",
                      "xpath": "count(Procedure/identifier)>=1 and count(Procedure/identifier)<=1"
                    }
                  ],
                  "mustSupport": true,
                  "isModifier": false
                }
              },
              {
                "path": "Procedure.subject",
                "definition": {
                  "short": "subject",
                  "formal": "subject",
                  "min": 1,
                  "max": "1",
                  "constraint": [
                    {
                      "key": "0",
                      "name": "subject",
                      "severity": "error",
                      "human": "SHALL contain exactly one [1..1] subject (CONF:X-X).",
                      "xpath": "count(Procedure/subject)>=1 and count(Procedure/subject)<=1"
                    }
                  ],
                  "mustSupport": false,
                  "isModifier": false
                }
              },
              {
                "path": "Procedure.type",
                "definition": {
                  "short": "type",
                  "formal": "type",
                  "min": 1,
                  "max": "1",
                  "constraint": [
                    {
                      "key": "587",
                      "name": "type",
                      "severity": "error",
                      "human": "SHALL contain exactly one [1..1] type (ValueSet: Common Procedures urn:oid:2.16.840.1.113883.3.117.3.12 STATIC 2015-06-04) (CONF:1150-587).",
                      "xpath": "count(Procedure/type)>=1 and count(Procedure/type)<=1"
                    }
                  ],
                  "mustSupport": true,
                  "isModifier": false,
                  "binding": {
                    "name": "Common Procedures",
                    "isExtensible": false,
                    "referenceUri": "urn:oid:2.16.840.1.113883.3.117.3.12"
                  }
                }
              },
              {
                "path": "Procedure.bodySite",
                "definition": {
                  "short": "bodySite",
                  "formal": "bodySite",
                  "min": 0,
                  "max": "*",
                  "constraint": [
                    {
                      "key": "592",
                      "name": "bodySite",
                      "severity": "warning",
                      "human": "SHOULD contain zero or more [0..*] bodySite, which SHALL be selected from ValueSet Body Site urn:oid:2.16.840.1.113883.3.88.12.3221.8.9 DYNAMIC (CONF:1150-592).",
                      "xpath": "count(Procedure/bodySite)>=0"
                    }
                  ],
                  "mustSupport": true,
                  "isModifier": false,
                  "binding": {
                    "name": "Body Site",
                    "isExtensible": true,
                    "referenceUri": "urn:oid:2.16.840.1.113883.3.88.12.3221.8.9"
                  }
                }
              },
              {
                "path": "Procedure.indication",
                "definition": {
                  "short": "indication",
                  "formal": "indication",
                  "min": 0,
                  "max": "*",
                  "constraint": [
                    {
                      "key": "0",
                      "name": "indication",
                      "severity": "warning",
                      "human": "MAY contain zero or more [0..*] indication (CONF:X-X).",
                      "xpath": "count(Procedure/indication)>=0"
                    }
                  ],
                  "mustSupport": false,
                  "isModifier": false
                }
              },
              {
                "path": "Procedure.performer",
                "definition": {
                  "short": "performer",
                  "formal": "performer",
                  "min": 0,
                  "max": "*",
                  "constraint": [
                    {
                      "key": "595",
                      "name": "performer",
                      "severity": "warning",
                      "human": "SHOULD contain zero or more [0..*] performer (CONF:1150-595).",
                      "xpath": "count(Procedure/performer)>=0"
                    }
                  ],
                  "mustSupport": true,
                  "isModifier": false
                }
              },
              {
                "path": "Procedure.performer.person",
                "definition": {
                  "short": "person",
                  "formal": "person",
                  "min": 1,
                  "max": "1",
                  "type": [
                    {
                      "code": "Practitioner",
                      "profile": "http://www.lantanagroup.com/camara/fhir/us-realm-author"
                    }
                  ],
                  "constraint": [
                    {
                      "key": "730",
                      "name": "person",
                      "severity": "error",
                      "human": "The performer, if present, SHALL contain exactly one [1..1] US Realm Author (identifier: http://www.lantanagroup.com/camara/fhir/us-realm-author) (CONF:1150-730).",
                      "xpath": "count(Procedure/performer/person)>=1 and count(Procedure/performer/person)<=1"
                    }
                  ],
                  "mustSupport": true,
                  "isModifier": false
                }
              },
              {
                "path": "Procedure.date",
                "definition": {
                  "short": "date",
                  "formal": "date",
                  "min": 0,
                  "max": "1",
                  "constraint": [
                    {
                      "key": "588",
                      "name": "date",
                      "severity": "warning",
                      "human": "SHOULD contain zero or one [0..1] date (CONF:1150-588).",
                      "xpath": "count(Procedure/date)>=0 and count(Procedure/date)<=1"
                    }
                  ],
                  "mustSupport": true,
                  "isModifier": false
                }
              },
              {
                "path": "Procedure.encounter",
                "definition": {
                  "short": "encounter",
                  "formal": "encounter",
                  "min": 0,
                  "max": "1",
                  "constraint": [
                    {
                      "key": "606",
                      "name": "encounter",
                      "severity": "warning",
                      "human": "MAY contain zero or one [0..1] encounter (CONF:1150-606).",
                      "xpath": "count(Procedure/encounter)>=0 and count(Procedure/encounter)<=1"
                    }
                  ],
                  "mustSupport": true,
                  "isModifier": false
                }
              },
              {
                "path": "Procedure.outcome",
                "definition": {
                  "short": "outcome",
                  "formal": "outcome",
                  "min": 0,
                  "max": "1",
                  "constraint": [
                    {
                      "key": "0",
                      "name": "outcome",
                      "severity": "warning",
                      "human": "MAY contain zero or one [0..1] outcome (CONF:X-X).",
                      "xpath": "count(Procedure/outcome)>=0 and count(Procedure/outcome)<=1"
                    }
                  ],
                  "mustSupport": false,
                  "isModifier": false
                }
              },
              {
                "path": "Procedure.report",
                "definition": {
                  "short": "report",
                  "formal": "report",
                  "min": 0,
                  "max": "*",
                  "constraint": [
                    {
                      "key": "0",
                      "name": "report",
                      "severity": "warning",
                      "human": "MAY contain zero or more [0..*] report (CONF:X-X).",
                      "xpath": "count(Procedure/report)>=0"
                    }
                  ],
                  "mustSupport": false,
                  "isModifier": false
                }
              },
              {
                "path": "Procedure.complication",
                "definition": {
                  "short": "complication",
                  "formal": "complication",
                  "min": 0,
                  "max": "*",
                  "constraint": [
                    {
                      "key": "0",
                      "name": "complication",
                      "severity": "warning",
                      "human": "MAY contain zero or more [0..*] complication (CONF:X-X).",
                      "xpath": "count(Procedure/complication)>=0"
                    }
                  ],
                  "mustSupport": false,
                  "isModifier": false
                }
              },
              {
                "path": "Procedure.followUp",
                "definition": {
                  "short": "followUp",
                  "formal": "followUp",
                  "min": 0,
                  "max": "1",
                  "constraint": [
                    {
                      "key": "0",
                      "name": "followUp",
                      "severity": "warning",
                      "human": "MAY contain zero or one [0..1] followUp (CONF:X-X).",
                      "xpath": "count(Procedure/followUp)>=0 and count(Procedure/followUp)<=1"
                    }
                  ],
                  "mustSupport": false,
                  "isModifier": false
                }
              },
              {
                "path": "Procedure.relatedItem",
                "definition": {
                  "short": "relatedItem",
                  "formal": "relatedItem",
                  "min": 0,
                  "max": "*",
                  "constraint": [
                    {
                      "key": "0",
                      "name": "relatedItem",
                      "severity": "warning",
                      "human": "MAY contain zero or more [0..*] relatedItem (CONF:X-X).",
                      "xpath": "count(Procedure/relatedItem)>=0"
                    }
                  ],
                  "mustSupport": false,
                  "isModifier": false
                }
              },
              {
                "path": "Procedure.notes",
                "definition": {
                  "short": "notes",
                  "formal": "notes",
                  "min": 0,
                  "max": "1",
                  "constraint": [
                    {
                      "key": "0",
                      "name": "notes",
                      "severity": "warning",
                      "human": "MAY contain zero or one [0..1] notes (CONF:X-X).",
                      "xpath": "count(Procedure/notes)>=0 and count(Procedure/notes)<=1"
                    }
                  ],
                  "mustSupport": false,
                  "isModifier": false
                }
              }
            ]
          }
        ]
      }
    },
    {
      "title": "Entry 8 for bundle",
      "id": "https://localhost:11444/fhir/fhir/Profile/eefcb3ce-56bc-4a0b-b32d-bc7ce9f2666a/_history/c3cbb047-8349-4dfd-ac49-097d04210026",
      "link": [
        {
          "href": "https://localhost:11444/fhir/fhir/Profile/eefcb3ce-56bc-4a0b-b32d-bc7ce9f2666a/_history/c3cbb047-8349-4dfd-ac49-097d04210026",
          "rel": "self"
        }
      ],
      "content": {
        "resourceType": "Profile",
        "extension": [
          {
            "url": "urn:lantanagroup.com/fhirExtension/implementationGuideName",
            "valueString": "Camara Consolidation V1.1"
          }
        ],
        "text": {
          "status": "generated",
          "div": "<div>&lt;xhtml:div xmlns:xhtml=&quot;http://www.w3.org/1999/xhtml&quot;&gt;&lt;xhtml:p&gt;US Realm Patient&lt;/xhtml:p&gt;&lt;xhtml:ol&gt;&lt;li xmlns=&quot;http://www.w3.org/1999/xhtml&quot;&gt;&lt;p&gt;MAY contain zero or one [0..1] id (CONF:X-X).&lt;/p&gt;&lt;/li&gt;&lt;li xmlns=&quot;http://www.w3.org/1999/xhtml&quot;&gt;&lt;p&gt;MAY contain zero or one [0..1] extension (CONF:1150-181) such that it&lt;/p&gt;&lt;ol&gt;&lt;li&gt;&lt;p&gt;SHALL contain exactly one [1..1] @url=&quot;http://hl7.org/fhir/Profile/us-core#ethnicity&quot; (CONF:1150-182).&lt;/p&gt;&lt;/li&gt;&lt;/ol&gt;&lt;ol&gt;&lt;li&gt;&lt;p&gt;SHALL contain exactly one [1..1] valueCodeableConcept, which SHALL be selected from ValueSet Axesson_Ethnicity urn:oid:2.16.840.1.113883.3.117.3.10 DYNAMIC (CONF:1150-183).&lt;/p&gt;&lt;/li&gt;&lt;/ol&gt;&lt;/li&gt;&lt;li xmlns=&quot;http://www.w3.org/1999/xhtml&quot;&gt;&lt;p&gt;MAY contain zero or one [0..1] extension (CONF:1150-837) such that it&lt;/p&gt;&lt;ol&gt;&lt;li&gt;&lt;p&gt;SHALL contain exactly one [1..1] @url=&quot;http://hl7.org/fhir/Profile/us-core#race&quot; (CONF:1150-838).&lt;/p&gt;&lt;/li&gt;&lt;/ol&gt;&lt;ol&gt;&lt;li&gt;&lt;p&gt;SHALL contain exactly one [1..1] valueCodeableConcept (ValueSet: Race urn:oid:2.16.840.1.113883.1.11.14914) (CONF:1150-839).&lt;/p&gt;&lt;/li&gt;&lt;/ol&gt;&lt;/li&gt;&lt;li xmlns=&quot;http://www.w3.org/1999/xhtml&quot;&gt;&lt;p&gt;MAY contain zero or more [0..*] modifierExtension (CONF:X-X).&lt;/p&gt;&lt;/li&gt;&lt;li xmlns=&quot;http://www.w3.org/1999/xhtml&quot;&gt;&lt;p&gt;MAY contain zero or one [0..1] language (CONF:X-X).&lt;/p&gt;&lt;/li&gt;&lt;li xmlns=&quot;http://www.w3.org/1999/xhtml&quot;&gt;&lt;p&gt;MAY contain zero or one [0..1] text (CONF:X-X).&lt;/p&gt;&lt;/li&gt;&lt;li xmlns=&quot;http://www.w3.org/1999/xhtml&quot;&gt;&lt;p&gt;MAY contain zero or more [0..*] contained (CONF:X-X).&lt;/p&gt;&lt;/li&gt;&lt;li xmlns=&quot;http://www.w3.org/1999/xhtml&quot;&gt;&lt;p&gt;SHALL contain at least one [1..*] identifier (CONF:1150-79).&lt;/p&gt;&lt;ol&gt;&lt;li&gt;&lt;p&gt;Such identifiers SHALL contain exactly one [1..1] system (ValueSet: Patient Identifier Types urn:oid:2.16.840.1.113883.3.117.3.3 STATIC 2015-02-25) (CONF:1150-736).&lt;/p&gt;&lt;/li&gt;&lt;/ol&gt;&lt;/li&gt;&lt;li xmlns=&quot;http://www.w3.org/1999/xhtml&quot;&gt;&lt;p&gt;SHALL contain at least one [1..*] name (CONF:1150-80).&lt;/p&gt;&lt;ol&gt;&lt;li&gt;&lt;p&gt;Such names SHALL contain exactly one [1..1] family (CONF:1150-174).&lt;/p&gt;&lt;/li&gt;&lt;/ol&gt;&lt;ol&gt;&lt;li&gt;&lt;p&gt;Such names SHALL contain at least one [1..*] given (CONF:1150-175).&lt;/p&gt;&lt;/li&gt;&lt;/ol&gt;&lt;/li&gt;&lt;li xmlns=&quot;http://www.w3.org/1999/xhtml&quot;&gt;&lt;p&gt;SHOULD contain zero or more [0..*] telecom (CONF:1150-78).&lt;/p&gt;&lt;ol&gt;&lt;li&gt;&lt;p&gt;The telecom, if present, SHOULD contain zero or one [0..1] value (CONF:1150-280).&lt;/p&gt;&lt;/li&gt;&lt;/ol&gt;&lt;ol&gt;&lt;li&gt;&lt;p&gt;The telecom, if present, SHOULD contain zero or one [0..1] use, which SHALL be selected from ValueSet Telecom Use (US Realm Header) urn:oid:2.16.840.1.113883.11.20.9.20 DYNAMIC (CONF:1150-81).&lt;/p&gt;&lt;/li&gt;&lt;/ol&gt;&lt;/li&gt;&lt;li xmlns=&quot;http://www.w3.org/1999/xhtml&quot;&gt;&lt;p&gt;SHALL contain exactly one [1..1] gender, which SHALL be selected from ValueSet Axesson_Gender_AdministrativeGender urn:oid:2.16.840.1.113883.3.117.3.6 DYNAMIC 2015-01-07 (CONF:1150-82).&lt;/p&gt;&lt;/li&gt;&lt;li xmlns=&quot;http://www.w3.org/1999/xhtml&quot;&gt;&lt;p&gt;SHALL contain exactly one [1..1] birthDate (CONF:1150-83).&lt;/p&gt;&lt;/li&gt;&lt;li xmlns=&quot;http://www.w3.org/1999/xhtml&quot;&gt;&lt;p&gt;SHALL contain exactly one [1..1] deceasedBoolean (CONF:X-X).&lt;/p&gt;&lt;/li&gt;&lt;li xmlns=&quot;http://www.w3.org/1999/xhtml&quot;&gt;&lt;p&gt;SHALL contain exactly one [1..1] deceasedDateTime (CONF:X-X).&lt;/p&gt;&lt;/li&gt;&lt;li xmlns=&quot;http://www.w3.org/1999/xhtml&quot;&gt;&lt;p&gt;SHOULD contain zero or more [0..*] address (CONF:1150-84).&lt;/p&gt;&lt;ol&gt;&lt;li&gt;&lt;p&gt;The address, if present, SHOULD contain zero or one [0..1] use, which SHALL be selected from ValueSet PostalAddressUse urn:oid:2.16.840.1.113883.1.11.10637 STATIC 2005-05-01 (CONF:1150-168).&lt;/p&gt;&lt;/li&gt;&lt;/ol&gt;&lt;ol&gt;&lt;li&gt;&lt;p&gt;The address, if present, SHALL contain at least one [1..*] line (CONF:1150-172).&lt;/p&gt;&lt;/li&gt;&lt;/ol&gt;&lt;ol&gt;&lt;li&gt;&lt;p&gt;The address, if present, SHALL contain exactly one [1..1] city (CONF:1150-170).&lt;/p&gt;&lt;/li&gt;&lt;/ol&gt;&lt;ol&gt;&lt;li&gt;&lt;p&gt;The address, if present, SHALL contain exactly one [1..1] state, which SHALL be selected from ValueSet StateValueSet urn:oid:2.16.840.1.113883.3.88.12.80.1 DYNAMIC (CONF:1150-171).&lt;/p&gt;&lt;/li&gt;&lt;/ol&gt;&lt;ol&gt;&lt;li&gt;&lt;p&gt;The address, if present, SHOULD contain zero or one [0..1] zip, which SHOULD be selected from ValueSet PostalCode urn:oid:2.16.840.1.113883.3.88.12.80.2 DYNAMIC (CONF:1150-173).&lt;/p&gt;&lt;/li&gt;&lt;/ol&gt;&lt;ol&gt;&lt;li&gt;&lt;p&gt;The address, if present, SHOULD contain zero or one [0..1] country, which SHALL be selected from ValueSet Country urn:oid:2.16.840.1.113883.3.88.12.80.63 DYNAMIC (CONF:1150-169).&lt;/p&gt;&lt;/li&gt;&lt;/ol&gt;&lt;/li&gt;&lt;li xmlns=&quot;http://www.w3.org/1999/xhtml&quot;&gt;&lt;p&gt;SHOULD contain zero or one [0..1] maritalStatus, which SHALL be selected from ValueSet Axesson_MaritalStatus urn:oid:2.16.840.1.113883.3.117.3.8 DYNAMIC (CONF:1150-176).&lt;/p&gt;&lt;/li&gt;&lt;li xmlns=&quot;http://www.w3.org/1999/xhtml&quot;&gt;&lt;p&gt;SHALL contain exactly one [1..1] multipleBirthBoolean (CONF:X-X).&lt;/p&gt;&lt;/li&gt;&lt;li xmlns=&quot;http://www.w3.org/1999/xhtml&quot;&gt;&lt;p&gt;SHALL contain exactly one [1..1] multipleBirthInteger (CONF:X-X).&lt;/p&gt;&lt;/li&gt;&lt;li xmlns=&quot;http://www.w3.org/1999/xhtml&quot;&gt;&lt;p&gt;MAY contain zero or more [0..*] photo (CONF:X-X).&lt;/p&gt;&lt;/li&gt;&lt;li xmlns=&quot;http://www.w3.org/1999/xhtml&quot;&gt;&lt;p&gt;SHOULD contain zero or more [0..*] contact (CONF:1150-306).&lt;/p&gt;&lt;ol&gt;&lt;li&gt;&lt;p&gt;The contact, if present, SHOULD contain zero or one [0..1] relationship (ValueSet: PersonalRelationshipRoleType urn:oid:2.16.840.1.113883.1.11.19563 DYNAMIC) (CONF:1150-725).&lt;/p&gt;&lt;/li&gt;&lt;/ol&gt;&lt;ol&gt;&lt;li&gt;&lt;p&gt;The contact, if present, SHALL contain exactly one [1..1] name (CONF:1150-726).&lt;/p&gt;&lt;/li&gt;&lt;/ol&gt;&lt;ol&gt;&lt;li&gt;&lt;p&gt;The contact, if present, SHALL contain exactly one [1..1] telecom (CONF:1150-727).&lt;/p&gt;&lt;/li&gt;&lt;/ol&gt;&lt;/li&gt;&lt;li xmlns=&quot;http://www.w3.org/1999/xhtml&quot;&gt;&lt;p&gt;MAY contain zero or one [0..1] animal (CONF:X-X).&lt;/p&gt;&lt;/li&gt;&lt;li xmlns=&quot;http://www.w3.org/1999/xhtml&quot;&gt;&lt;p&gt;SHOULD contain zero or one [0..1] communication, which SHALL be selected from ValueSet Language urn:oid:2.16.840.1.113883.1.11.11526 DYNAMIC (CONF:1150-177).&lt;/p&gt;&lt;/li&gt;&lt;li xmlns=&quot;http://www.w3.org/1999/xhtml&quot;&gt;&lt;p&gt;MAY contain zero or more [0..*] careProvider (CONF:X-X).&lt;/p&gt;&lt;/li&gt;&lt;li xmlns=&quot;http://www.w3.org/1999/xhtml&quot;&gt;&lt;p&gt;MAY contain zero or one [0..1] managingOrganization (CONF:X-X).&lt;/p&gt;&lt;/li&gt;&lt;li xmlns=&quot;http://www.w3.org/1999/xhtml&quot;&gt;&lt;p&gt;MAY contain zero or more [0..*] link (CONF:X-X).&lt;/p&gt;&lt;/li&gt;&lt;li xmlns=&quot;http://www.w3.org/1999/xhtml&quot;&gt;&lt;p&gt;MAY contain zero or one [0..1] active (CONF:X-X).&lt;/p&gt;&lt;/li&gt;&lt;/xhtml:ol&gt;&lt;/xhtml:div&gt;</div>"
        },
        "identifier": "http://www.lantanagroup.com/camara/fhir/us-realm-patient",
        "name": "US Realm Patient",
        "publisher": "LCG",
        "status": "draft",
        "fhirVersion": "0.8",
        "structure": [
          {
            "type": "Patient",
            "element": [
              {
                "path": "Patient.id",
                "definition": {
                  "short": "id",
                  "formal": "id",
                  "min": 0,
                  "max": "1",
                  "constraint": [
                    {
                      "key": "0",
                      "name": "id",
                      "severity": "warning",
                      "human": "MAY contain zero or one [0..1] id (CONF:X-X).",
                      "xpath": "count(Patient/id)>=0 and count(Patient/id)<=1"
                    }
                  ],
                  "mustSupport": false,
                  "isModifier": false
                }
              },
              {
                "path": "Patient.extension",
                "name": "slice-d947e0",
                "slicing": {
                  "discriminator": "url",
                  "ordered": false,
                  "rules": "open"
                },
                "definition": {
                  "short": "Ethnicity",
                  "formal": "extension",
                  "min": 0,
                  "max": "1",
                  "constraint": [
                    {
                      "key": "181",
                      "name": "extension",
                      "severity": "warning",
                      "human": "MAY contain zero or one [0..1] extension (CONF:1150-181) such that it",
                      "xpath": "count(Patient/extension)>=0 and count(Patient/extension)<=1"
                    }
                  ],
                  "mustSupport": true,
                  "isModifier": false
                }
              },
              {
                "path": "Patient.extension.@url",
                "name": "slice-d947e0",
                "definition": {
                  "short": "@url",
                  "formal": "@url",
                  "min": 1,
                  "max": "1",
                  "valueCode": "http://hl7.org/fhir/Profile/us-core#ethnicity",
                  "constraint": [
                    {
                      "key": "182",
                      "name": "@url",
                      "severity": "error",
                      "human": "SHALL contain exactly one [1..1] @url=\"http://hl7.org/fhir/Profile/us-core#ethnicity\" (CONF:1150-182).",
                      "xpath": "count(Patient/extension/@url)>=1 and count(Patient/extension/@url)<=1"
                    }
                  ],
                  "mustSupport": true,
                  "isModifier": false
                }
              },
              {
                "path": "Patient.extension.valueCodeableConcept",
                "name": "slice-d947e0",
                "definition": {
                  "short": "valueCodeableConcept",
                  "formal": "valueCodeableConcept",
                  "min": 1,
                  "max": "1",
                  "constraint": [
                    {
                      "key": "183",
                      "name": "valueCodeableConcept",
                      "severity": "error",
                      "human": "SHALL contain exactly one [1..1] valueCodeableConcept, which SHALL be selected from ValueSet Axesson_Ethnicity urn:oid:2.16.840.1.113883.3.117.3.10 DYNAMIC (CONF:1150-183).",
                      "xpath": "count(Patient/extension/valueCodeableConcept)>=1 and count(Patient/extension/valueCodeableConcept)<=1"
                    }
                  ],
                  "mustSupport": true,
                  "isModifier": false,
                  "binding": {
                    "name": "Axesson_Ethnicity",
                    "isExtensible": true,
                    "referenceUri": "urn:oid:2.16.840.1.113883.3.117.3.10"
                  }
                }
              },
              {
                "path": "Patient.extension",
                "name": "slice-d960e0",
                "slicing": {
                  "discriminator": "url",
                  "ordered": false,
                  "rules": "open"
                },
                "definition": {
                  "short": "Race",
                  "formal": "extension",
                  "min": 0,
                  "max": "1",
                  "constraint": [
                    {
                      "key": "837",
                      "name": "extension",
                      "severity": "warning",
                      "human": "MAY contain zero or one [0..1] extension (CONF:1150-837) such that it",
                      "xpath": "count(Patient/extension)>=0 and count(Patient/extension)<=1"
                    }
                  ],
                  "mustSupport": true,
                  "isModifier": false
                }
              },
              {
                "path": "Patient.extension.@url",
                "name": "slice-d960e0",
                "definition": {
                  "short": "@url",
                  "formal": "@url",
                  "min": 1,
                  "max": "1",
                  "valueCode": "http://hl7.org/fhir/Profile/us-core#race",
                  "constraint": [
                    {
                      "key": "838",
                      "name": "@url",
                      "severity": "error",
                      "human": "SHALL contain exactly one [1..1] @url=\"http://hl7.org/fhir/Profile/us-core#race\" (CONF:1150-838).",
                      "xpath": "count(Patient/extension/@url)>=1 and count(Patient/extension/@url)<=1"
                    }
                  ],
                  "mustSupport": true,
                  "isModifier": false
                }
              },
              {
                "path": "Patient.extension.valueCodeableConcept",
                "name": "slice-d960e0",
                "definition": {
                  "short": "valueCodeableConcept",
                  "formal": "valueCodeableConcept",
                  "min": 1,
                  "max": "1",
                  "constraint": [
                    {
                      "key": "839",
                      "name": "valueCodeableConcept",
                      "severity": "error",
                      "human": "SHALL contain exactly one [1..1] valueCodeableConcept (ValueSet: Race urn:oid:2.16.840.1.113883.1.11.14914) (CONF:1150-839).",
                      "xpath": "count(Patient/extension/valueCodeableConcept)>=1 and count(Patient/extension/valueCodeableConcept)<=1"
                    }
                  ],
                  "mustSupport": true,
                  "isModifier": false,
                  "binding": {
                    "name": "Race",
                    "isExtensible": true,
                    "referenceUri": "urn:oid:2.16.840.1.113883.1.11.14914"
                  }
                }
              },
              {
                "path": "Patient.modifierExtension",
                "definition": {
                  "short": "modifierExtension",
                  "formal": "modifierExtension",
                  "min": 0,
                  "max": "*",
                  "constraint": [
                    {
                      "key": "0",
                      "name": "modifierExtension",
                      "severity": "warning",
                      "human": "MAY contain zero or more [0..*] modifierExtension (CONF:X-X).",
                      "xpath": "count(Patient/modifierExtension)>=0"
                    }
                  ],
                  "mustSupport": false,
                  "isModifier": false
                }
              },
              {
                "path": "Patient.language",
                "definition": {
                  "short": "language",
                  "formal": "language",
                  "min": 0,
                  "max": "1",
                  "constraint": [
                    {
                      "key": "0",
                      "name": "language",
                      "severity": "warning",
                      "human": "MAY contain zero or one [0..1] language (CONF:X-X).",
                      "xpath": "count(Patient/language)>=0 and count(Patient/language)<=1"
                    }
                  ],
                  "mustSupport": false,
                  "isModifier": false
                }
              },
              {
                "path": "Patient.text",
                "definition": {
                  "short": "text",
                  "formal": "text",
                  "min": 0,
                  "max": "1",
                  "constraint": [
                    {
                      "key": "0",
                      "name": "text",
                      "severity": "warning",
                      "human": "MAY contain zero or one [0..1] text (CONF:X-X).",
                      "xpath": "count(Patient/text)>=0 and count(Patient/text)<=1"
                    }
                  ],
                  "mustSupport": false,
                  "isModifier": false
                }
              },
              {
                "path": "Patient.contained",
                "definition": {
                  "short": "contained",
                  "formal": "contained",
                  "min": 0,
                  "max": "*",
                  "constraint": [
                    {
                      "key": "0",
                      "name": "contained",
                      "severity": "warning",
                      "human": "MAY contain zero or more [0..*] contained (CONF:X-X).",
                      "xpath": "count(Patient/contained)>=0"
                    }
                  ],
                  "mustSupport": false,
                  "isModifier": false
                }
              },
              {
                "path": "Patient.identifier",
                "definition": {
                  "short": "Identifiers",
                  "formal": "identifier",
                  "min": 1,
                  "max": "*",
                  "constraint": [
                    {
                      "key": "79",
                      "name": "identifier",
                      "severity": "error",
                      "human": "SHALL contain at least one [1..*] identifier (CONF:1150-79).",
                      "xpath": "count(Patient/identifier)>=1"
                    }
                  ],
                  "mustSupport": true,
                  "isModifier": false
                }
              },
              {
                "path": "Patient.identifier.system",
                "definition": {
                  "short": "system",
                  "formal": "system",
                  "min": 1,
                  "max": "1",
                  "constraint": [
                    {
                      "key": "736",
                      "name": "system",
                      "severity": "error",
                      "human": "Such identifiers SHALL contain exactly one [1..1] system (ValueSet: Patient Identifier Types urn:oid:2.16.840.1.113883.3.117.3.3 STATIC 2015-02-25) (CONF:1150-736).",
                      "xpath": "count(Patient/identifier/system)>=1 and count(Patient/identifier/system)<=1"
                    }
                  ],
                  "mustSupport": true,
                  "isModifier": false,
                  "binding": {
                    "name": "Patient Identifier Types",
                    "isExtensible": false,
                    "referenceUri": "urn:oid:2.16.840.1.113883.3.117.3.3"
                  }
                }
              },
              {
                "path": "Patient.name",
                "definition": {
                  "short": "Name(s)",
                  "formal": "name",
                  "min": 1,
                  "max": "*",
                  "constraint": [
                    {
                      "key": "80",
                      "name": "name",
                      "severity": "error",
                      "human": "SHALL contain at least one [1..*] name (CONF:1150-80).",
                      "xpath": "count(Patient/name)>=1"
                    }
                  ],
                  "mustSupport": true,
                  "isModifier": false
                }
              },
              {
                "path": "Patient.name.family",
                "definition": {
                  "short": "family",
                  "formal": "family",
                  "min": 1,
                  "max": "1",
                  "constraint": [
                    {
                      "key": "174",
                      "name": "family",
                      "severity": "error",
                      "human": "Such names SHALL contain exactly one [1..1] family (CONF:1150-174).",
                      "xpath": "count(Patient/name/family)>=1 and count(Patient/name/family)<=1"
                    }
                  ],
                  "mustSupport": true,
                  "isModifier": false
                }
              },
              {
                "path": "Patient.name.given",
                "definition": {
                  "short": "given",
                  "formal": "given",
                  "min": 1,
                  "max": "*",
                  "constraint": [
                    {
                      "key": "175",
                      "name": "given",
                      "severity": "error",
                      "human": "Such names SHALL contain at least one [1..*] given (CONF:1150-175).",
                      "xpath": "count(Patient/name/given)>=1"
                    }
                  ],
                  "mustSupport": true,
                  "isModifier": false
                }
              },
              {
                "path": "Patient.telecom",
                "definition": {
                  "short": "Communication Methods",
                  "formal": "telecom",
                  "min": 0,
                  "max": "*",
                  "constraint": [
                    {
                      "key": "78",
                      "name": "telecom",
                      "severity": "warning",
                      "human": "SHOULD contain zero or more [0..*] telecom (CONF:1150-78).",
                      "xpath": "count(Patient/telecom)>=0"
                    }
                  ],
                  "mustSupport": true,
                  "isModifier": false
                }
              },
              {
                "path": "Patient.telecom.value",
                "definition": {
                  "short": "value",
                  "formal": "value",
                  "min": 0,
                  "max": "1",
                  "constraint": [
                    {
                      "key": "280",
                      "name": "value",
                      "severity": "warning",
                      "human": "The telecom, if present, SHOULD contain zero or one [0..1] value (CONF:1150-280).",
                      "xpath": "count(Patient/telecom/value)>=0 and count(Patient/telecom/value)<=1"
                    }
                  ],
                  "mustSupport": true,
                  "isModifier": false
                }
              },
              {
                "path": "Patient.telecom.use",
                "definition": {
                  "short": "use",
                  "formal": "use",
                  "min": 0,
                  "max": "1",
                  "constraint": [
                    {
                      "key": "81",
                      "name": "use",
                      "severity": "warning",
                      "human": "The telecom, if present, SHOULD contain zero or one [0..1] use, which SHALL be selected from ValueSet Telecom Use (US Realm Header) urn:oid:2.16.840.1.113883.11.20.9.20 DYNAMIC (CONF:1150-81).",
                      "xpath": "count(Patient/telecom/use)>=0 and count(Patient/telecom/use)<=1"
                    }
                  ],
                  "mustSupport": true,
                  "isModifier": false,
                  "binding": {
                    "name": "Telecom Use (US Realm Header)",
                    "isExtensible": true,
                    "referenceUri": "urn:oid:2.16.840.1.113883.11.20.9.20"
                  }
                }
              },
              {
                "path": "Patient.gender",
                "definition": {
                  "short": "Gender",
                  "formal": "gender",
                  "min": 1,
                  "max": "1",
                  "constraint": [
                    {
                      "key": "82",
                      "name": "gender",
                      "severity": "error",
                      "human": "SHALL contain exactly one [1..1] gender, which SHALL be selected from ValueSet Axesson_Gender_AdministrativeGender urn:oid:2.16.840.1.113883.3.117.3.6 DYNAMIC 2015-01-07 (CONF:1150-82).",
                      "xpath": "count(Patient/gender)>=1 and count(Patient/gender)<=1"
                    }
                  ],
                  "mustSupport": true,
                  "isModifier": false,
                  "binding": {
                    "name": "Axesson_Gender_AdministrativeGender",
                    "isExtensible": true,
                    "referenceUri": "urn:oid:2.16.840.1.113883.3.117.3.6"
                  }
                }
              },
              {
                "path": "Patient.birthDate",
                "definition": {
                  "short": "Birth Date",
                  "formal": "birthDate",
                  "min": 1,
                  "max": "1",
                  "constraint": [
                    {
                      "key": "83",
                      "name": "birthDate",
                      "severity": "error",
                      "human": "SHALL contain exactly one [1..1] birthDate (CONF:1150-83).",
                      "xpath": "count(Patient/birthDate)>=1 and count(Patient/birthDate)<=1"
                    }
                  ],
                  "mustSupport": true,
                  "isModifier": false
                }
              },
              {
                "path": "Patient.deceasedBoolean",
                "definition": {
                  "short": "deceasedBoolean",
                  "formal": "deceasedBoolean",
                  "min": 1,
                  "max": "1",
                  "constraint": [
                    {
                      "key": "0",
                      "name": "deceasedBoolean",
                      "severity": "error",
                      "human": "SHALL contain exactly one [1..1] deceasedBoolean (CONF:X-X).",
                      "xpath": "count(Patient/deceasedBoolean)>=1 and count(Patient/deceasedBoolean)<=1"
                    }
                  ],
                  "mustSupport": false,
                  "isModifier": false
                }
              },
              {
                "path": "Patient.deceasedDateTime",
                "definition": {
                  "short": "deceasedDateTime",
                  "formal": "deceasedDateTime",
                  "min": 1,
                  "max": "1",
                  "constraint": [
                    {
                      "key": "0",
                      "name": "deceasedDateTime",
                      "severity": "error",
                      "human": "SHALL contain exactly one [1..1] deceasedDateTime (CONF:X-X).",
                      "xpath": "count(Patient/deceasedDateTime)>=1 and count(Patient/deceasedDateTime)<=1"
                    }
                  ],
                  "mustSupport": false,
                  "isModifier": false
                }
              },
              {
                "path": "Patient.address",
                "definition": {
                  "short": "Addresses",
                  "formal": "address",
                  "min": 0,
                  "max": "*",
                  "constraint": [
                    {
                      "key": "84",
                      "name": "address",
                      "severity": "warning",
                      "human": "SHOULD contain zero or more [0..*] address (CONF:1150-84).",
                      "xpath": "count(Patient/address)>=0"
                    }
                  ],
                  "mustSupport": true,
                  "isModifier": false
                }
              },
              {
                "path": "Patient.address.use",
                "definition": {
                  "short": "use",
                  "formal": "use",
                  "min": 0,
                  "max": "1",
                  "constraint": [
                    {
                      "key": "168",
                      "name": "use",
                      "severity": "warning",
                      "human": "The address, if present, SHOULD contain zero or one [0..1] use, which SHALL be selected from ValueSet PostalAddressUse urn:oid:2.16.840.1.113883.1.11.10637 STATIC 2005-05-01 (CONF:1150-168).",
                      "xpath": "count(Patient/address/use)>=0 and count(Patient/address/use)<=1"
                    }
                  ],
                  "mustSupport": true,
                  "isModifier": false,
                  "binding": {
                    "name": "PostalAddressUse",
                    "isExtensible": false,
                    "referenceUri": "urn:oid:2.16.840.1.113883.1.11.10637"
                  }
                }
              },
              {
                "path": "Patient.address.line",
                "definition": {
                  "short": "line",
                  "formal": "line",
                  "min": 1,
                  "max": "*",
                  "constraint": [
                    {
                      "key": "172",
                      "name": "line",
                      "severity": "error",
                      "human": "The address, if present, SHALL contain at least one [1..*] line (CONF:1150-172).",
                      "xpath": "count(Patient/address/line)>=1"
                    }
                  ],
                  "mustSupport": true,
                  "isModifier": false
                }
              },
              {
                "path": "Patient.address.city",
                "definition": {
                  "short": "city",
                  "formal": "city",
                  "min": 1,
                  "max": "1",
                  "constraint": [
                    {
                      "key": "170",
                      "name": "city",
                      "severity": "error",
                      "human": "The address, if present, SHALL contain exactly one [1..1] city (CONF:1150-170).",
                      "xpath": "count(Patient/address/city)>=1 and count(Patient/address/city)<=1"
                    }
                  ],
                  "mustSupport": true,
                  "isModifier": false
                }
              },
              {
                "path": "Patient.address.state",
                "definition": {
                  "short": "state",
                  "formal": "state",
                  "min": 1,
                  "max": "1",
                  "constraint": [
                    {
                      "key": "171",
                      "name": "state",
                      "severity": "error",
                      "human": "The address, if present, SHALL contain exactly one [1..1] state, which SHALL be selected from ValueSet StateValueSet urn:oid:2.16.840.1.113883.3.88.12.80.1 DYNAMIC (CONF:1150-171).",
                      "xpath": "count(Patient/address/state)>=1 and count(Patient/address/state)<=1"
                    }
                  ],
                  "mustSupport": true,
                  "isModifier": false,
                  "binding": {
                    "name": "StateValueSet",
                    "isExtensible": true,
                    "referenceUri": "urn:oid:2.16.840.1.113883.3.88.12.80.1"
                  }
                }
              },
              {
                "path": "Patient.address.zip",
                "definition": {
                  "short": "zip",
                  "formal": "zip",
                  "min": 0,
                  "max": "1",
                  "constraint": [
                    {
                      "key": "173",
                      "name": "zip",
                      "severity": "warning",
                      "human": "The address, if present, SHOULD contain zero or one [0..1] zip, which SHOULD be selected from ValueSet PostalCode urn:oid:2.16.840.1.113883.3.88.12.80.2 DYNAMIC (CONF:1150-173).",
                      "xpath": "count(Patient/address/zip)>=0 and count(Patient/address/zip)<=1"
                    }
                  ],
                  "mustSupport": true,
                  "isModifier": false,
                  "binding": {
                    "name": "PostalCode",
                    "isExtensible": true,
                    "referenceUri": "urn:oid:2.16.840.1.113883.3.88.12.80.2"
                  }
                }
              },
              {
                "path": "Patient.address.country",
                "definition": {
                  "short": "country",
                  "formal": "country",
                  "min": 0,
                  "max": "1",
                  "constraint": [
                    {
                      "key": "169",
                      "name": "country",
                      "severity": "warning",
                      "human": "The address, if present, SHOULD contain zero or one [0..1] country, which SHALL be selected from ValueSet Country urn:oid:2.16.840.1.113883.3.88.12.80.63 DYNAMIC (CONF:1150-169).",
                      "xpath": "count(Patient/address/country)>=0 and count(Patient/address/country)<=1"
                    }
                  ],
                  "mustSupport": true,
                  "isModifier": false,
                  "binding": {
                    "name": "Country",
                    "isExtensible": true,
                    "referenceUri": "urn:oid:2.16.840.1.113883.3.88.12.80.63"
                  }
                }
              },
              {
                "path": "Patient.maritalStatus",
                "definition": {
                  "short": "Marital Status",
                  "formal": "maritalStatus",
                  "min": 0,
                  "max": "1",
                  "constraint": [
                    {
                      "key": "176",
                      "name": "maritalStatus",
                      "severity": "warning",
                      "human": "SHOULD contain zero or one [0..1] maritalStatus, which SHALL be selected from ValueSet Axesson_MaritalStatus urn:oid:2.16.840.1.113883.3.117.3.8 DYNAMIC (CONF:1150-176).",
                      "xpath": "count(Patient/maritalStatus)>=0 and count(Patient/maritalStatus)<=1"
                    }
                  ],
                  "mustSupport": true,
                  "isModifier": false,
                  "binding": {
                    "name": "Axesson_MaritalStatus",
                    "isExtensible": true,
                    "referenceUri": "urn:oid:2.16.840.1.113883.3.117.3.8"
                  }
                }
              },
              {
                "path": "Patient.multipleBirthBoolean",
                "definition": {
                  "short": "multipleBirthBoolean",
                  "formal": "multipleBirthBoolean",
                  "min": 1,
                  "max": "1",
                  "constraint": [
                    {
                      "key": "0",
                      "name": "multipleBirthBoolean",
                      "severity": "error",
                      "human": "SHALL contain exactly one [1..1] multipleBirthBoolean (CONF:X-X).",
                      "xpath": "count(Patient/multipleBirthBoolean)>=1 and count(Patient/multipleBirthBoolean)<=1"
                    }
                  ],
                  "mustSupport": false,
                  "isModifier": false
                }
              },
              {
                "path": "Patient.multipleBirthInteger",
                "definition": {
                  "short": "multipleBirthInteger",
                  "formal": "multipleBirthInteger",
                  "min": 1,
                  "max": "1",
                  "constraint": [
                    {
                      "key": "0",
                      "name": "multipleBirthInteger",
                      "severity": "error",
                      "human": "SHALL contain exactly one [1..1] multipleBirthInteger (CONF:X-X).",
                      "xpath": "count(Patient/multipleBirthInteger)>=1 and count(Patient/multipleBirthInteger)<=1"
                    }
                  ],
                  "mustSupport": false,
                  "isModifier": false
                }
              },
              {
                "path": "Patient.photo",
                "definition": {
                  "short": "photo",
                  "formal": "photo",
                  "min": 0,
                  "max": "*",
                  "constraint": [
                    {
                      "key": "0",
                      "name": "photo",
                      "severity": "warning",
                      "human": "MAY contain zero or more [0..*] photo (CONF:X-X).",
                      "xpath": "count(Patient/photo)>=0"
                    }
                  ],
                  "mustSupport": false,
                  "isModifier": false
                }
              },
              {
                "path": "Patient.contact",
                "definition": {
                  "short": "Patient Contacts",
                  "formal": "contact",
                  "min": 0,
                  "max": "*",
                  "constraint": [
                    {
                      "key": "306",
                      "name": "contact",
                      "severity": "warning",
                      "human": "SHOULD contain zero or more [0..*] contact (CONF:1150-306).",
                      "xpath": "count(Patient/contact)>=0"
                    }
                  ],
                  "mustSupport": true,
                  "isModifier": false
                }
              },
              {
                "path": "Patient.contact.relationship",
                "definition": {
                  "short": "Type",
                  "formal": "relationship",
                  "min": 0,
                  "max": "1",
                  "constraint": [
                    {
                      "key": "725",
                      "name": "relationship",
                      "severity": "warning",
                      "human": "The contact, if present, SHOULD contain zero or one [0..1] relationship (ValueSet: PersonalRelationshipRoleType urn:oid:2.16.840.1.113883.1.11.19563 DYNAMIC) (CONF:1150-725).",
                      "xpath": "count(Patient/contact/relationship)>=0 and count(Patient/contact/relationship)<=1"
                    }
                  ],
                  "mustSupport": true,
                  "isModifier": false,
                  "binding": {
                    "name": "PersonalRelationshipRoleType",
                    "isExtensible": true,
                    "referenceUri": "urn:oid:2.16.840.1.113883.1.11.19563"
                  }
                }
              },
              {
                "path": "Patient.contact.name",
                "definition": {
                  "short": "Name",
                  "formal": "name",
                  "min": 1,
                  "max": "1",
                  "constraint": [
                    {
                      "key": "726",
                      "name": "name",
                      "severity": "error",
                      "human": "The contact, if present, SHALL contain exactly one [1..1] name (CONF:1150-726).",
                      "xpath": "count(Patient/contact/name)>=1 and count(Patient/contact/name)<=1"
                    }
                  ],
                  "mustSupport": true,
                  "isModifier": false
                }
              },
              {
                "path": "Patient.contact.telecom",
                "definition": {
                  "short": "Contact Method",
                  "formal": "telecom",
                  "min": 1,
                  "max": "1",
                  "constraint": [
                    {
                      "key": "727",
                      "name": "telecom",
                      "severity": "error",
                      "human": "The contact, if present, SHALL contain exactly one [1..1] telecom (CONF:1150-727).",
                      "xpath": "count(Patient/contact/telecom)>=1 and count(Patient/contact/telecom)<=1"
                    }
                  ],
                  "mustSupport": true,
                  "isModifier": false
                }
              },
              {
                "path": "Patient.animal",
                "definition": {
                  "short": "animal",
                  "formal": "animal",
                  "min": 0,
                  "max": "1",
                  "constraint": [
                    {
                      "key": "0",
                      "name": "animal",
                      "severity": "warning",
                      "human": "MAY contain zero or one [0..1] animal (CONF:X-X).",
                      "xpath": "count(Patient/animal)>=0 and count(Patient/animal)<=1"
                    }
                  ],
                  "mustSupport": false,
                  "isModifier": false
                }
              },
              {
                "path": "Patient.communication",
                "definition": {
                  "short": "Patient's Language(s)",
                  "formal": "communication",
                  "min": 0,
                  "max": "1",
                  "constraint": [
                    {
                      "key": "177",
                      "name": "communication",
                      "severity": "warning",
                      "human": "SHOULD contain zero or one [0..1] communication, which SHALL be selected from ValueSet Language urn:oid:2.16.840.1.113883.1.11.11526 DYNAMIC (CONF:1150-177).",
                      "xpath": "count(Patient/communication)>=0 and count(Patient/communication)<=1"
                    }
                  ],
                  "mustSupport": true,
                  "isModifier": false,
                  "binding": {
                    "name": "Language",
                    "isExtensible": true,
                    "referenceUri": "urn:oid:2.16.840.1.113883.1.11.11526"
                  }
                }
              },
              {
                "path": "Patient.careProvider",
                "definition": {
                  "short": "careProvider",
                  "formal": "careProvider",
                  "min": 0,
                  "max": "*",
                  "constraint": [
                    {
                      "key": "0",
                      "name": "careProvider",
                      "severity": "warning",
                      "human": "MAY contain zero or more [0..*] careProvider (CONF:X-X).",
                      "xpath": "count(Patient/careProvider)>=0"
                    }
                  ],
                  "mustSupport": false,
                  "isModifier": false
                }
              },
              {
                "path": "Patient.managingOrganization",
                "definition": {
                  "short": "managingOrganization",
                  "formal": "managingOrganization",
                  "min": 0,
                  "max": "1",
                  "constraint": [
                    {
                      "key": "0",
                      "name": "managingOrganization",
                      "severity": "warning",
                      "human": "MAY contain zero or one [0..1] managingOrganization (CONF:X-X).",
                      "xpath": "count(Patient/managingOrganization)>=0 and count(Patient/managingOrganization)<=1"
                    }
                  ],
                  "mustSupport": false,
                  "isModifier": false
                }
              },
              {
                "path": "Patient.link",
                "definition": {
                  "short": "link",
                  "formal": "link",
                  "min": 0,
                  "max": "*",
                  "constraint": [
                    {
                      "key": "0",
                      "name": "link",
                      "severity": "warning",
                      "human": "MAY contain zero or more [0..*] link (CONF:X-X).",
                      "xpath": "count(Patient/link)>=0"
                    }
                  ],
                  "mustSupport": false,
                  "isModifier": false
                }
              },
              {
                "path": "Patient.active",
                "definition": {
                  "short": "active",
                  "formal": "active",
                  "min": 0,
                  "max": "1",
                  "constraint": [
                    {
                      "key": "0",
                      "name": "active",
                      "severity": "warning",
                      "human": "MAY contain zero or one [0..1] active (CONF:X-X).",
                      "xpath": "count(Patient/active)>=0 and count(Patient/active)<=1"
                    }
                  ],
                  "mustSupport": false,
                  "isModifier": false
                }
              }
            ]
          }
        ]
      }
    },
    {
      "title": "Entry 9 for bundle",
      "id": "https://localhost:11444/fhir/fhir/Profile/cb84d7da-6eec-46be-8624-aaabd5ab8066/_history/31c4ae0d-b93d-4376-8dcf-b318a693f021",
      "link": [
        {
          "href": "https://localhost:11444/fhir/fhir/Profile/cb84d7da-6eec-46be-8624-aaabd5ab8066/_history/31c4ae0d-b93d-4376-8dcf-b318a693f021",
          "rel": "self"
        }
      ],
      "content": {
        "resourceType": "Profile",
        "extension": [
          {
            "url": "urn:lantanagroup.com/fhirExtension/implementationGuideName",
            "valueString": "Camara Consolidation V1.1"
          }
        ],
        "text": {
          "status": "generated",
          "div": "<div>&lt;xhtml:div xmlns:xhtml=&quot;http://www.w3.org/1999/xhtml&quot;&gt;&lt;xhtml:p&gt;US Realm Custodian&lt;/xhtml:p&gt;&lt;xhtml:ol&gt;&lt;li xmlns=&quot;http://www.w3.org/1999/xhtml&quot;&gt;&lt;p&gt;MAY contain zero or one [0..1] id (CONF:X-X).&lt;/p&gt;&lt;/li&gt;&lt;li xmlns=&quot;http://www.w3.org/1999/xhtml&quot;&gt;&lt;p&gt;MAY contain zero or more [0..*] extension (CONF:X-X).&lt;/p&gt;&lt;/li&gt;&lt;li xmlns=&quot;http://www.w3.org/1999/xhtml&quot;&gt;&lt;p&gt;MAY contain zero or more [0..*] modifierExtension (CONF:X-X).&lt;/p&gt;&lt;/li&gt;&lt;li xmlns=&quot;http://www.w3.org/1999/xhtml&quot;&gt;&lt;p&gt;MAY contain zero or one [0..1] language (CONF:X-X).&lt;/p&gt;&lt;/li&gt;&lt;li xmlns=&quot;http://www.w3.org/1999/xhtml&quot;&gt;&lt;p&gt;MAY contain zero or one [0..1] text (CONF:X-X).&lt;/p&gt;&lt;/li&gt;&lt;li xmlns=&quot;http://www.w3.org/1999/xhtml&quot;&gt;&lt;p&gt;MAY contain zero or more [0..*] contained (CONF:X-X).&lt;/p&gt;&lt;/li&gt;&lt;li xmlns=&quot;http://www.w3.org/1999/xhtml&quot;&gt;&lt;p&gt;SHALL contain at least one [1..*] identifier (CONF:1150-294).&lt;/p&gt;&lt;ol&gt;&lt;li&gt;&lt;p&gt;Such identifiers SHALL contain exactly one [1..1] system (ValueSet: Organization Identifier Types urn:oid:2.16.840.1.113883.3.117.3.1 STATIC 2015-02-25) (CONF:1150-738).&lt;/p&gt;&lt;/li&gt;&lt;/ol&gt;&lt;/li&gt;&lt;li xmlns=&quot;http://www.w3.org/1999/xhtml&quot;&gt;&lt;p&gt;SHALL contain exactly one [1..1] name (CONF:1150-295).&lt;/p&gt;&lt;/li&gt;&lt;li xmlns=&quot;http://www.w3.org/1999/xhtml&quot;&gt;&lt;p&gt;MAY contain zero or one [0..1] type (CONF:X-X).&lt;/p&gt;&lt;/li&gt;&lt;li xmlns=&quot;http://www.w3.org/1999/xhtml&quot;&gt;&lt;p&gt;SHALL contain exactly one [1..1] telecom (CONF:1150-296).&lt;/p&gt;&lt;ol&gt;&lt;li&gt;&lt;p&gt;This telecom SHOULD contain zero or one [0..1] value (CONF:1150-1452).&lt;/p&gt;&lt;/li&gt;&lt;/ol&gt;&lt;ol&gt;&lt;li&gt;&lt;p&gt;This telecom SHOULD contain zero or one [0..1] use, which SHALL be selected from ValueSet Telecom Use (US Realm Header) urn:oid:2.16.840.1.113883.11.20.9.20 DYNAMIC (CONF:1150-297).&lt;/p&gt;&lt;/li&gt;&lt;/ol&gt;&lt;/li&gt;&lt;li xmlns=&quot;http://www.w3.org/1999/xhtml&quot;&gt;&lt;p&gt;SHALL contain exactly one [1..1] address (CONF:1150-298).&lt;/p&gt;&lt;ol&gt;&lt;li&gt;&lt;p&gt;This address SHOULD contain zero or one [0..1] use (CONF:1150-299).&lt;/p&gt;&lt;/li&gt;&lt;/ol&gt;&lt;ol&gt;&lt;li&gt;&lt;p&gt;This address SHOULD contain zero or one [0..1] line (CONF:1150-300).&lt;/p&gt;&lt;/li&gt;&lt;/ol&gt;&lt;ol&gt;&lt;li&gt;&lt;p&gt;This address SHOULD contain zero or one [0..1] city (CONF:1150-301).&lt;/p&gt;&lt;/li&gt;&lt;/ol&gt;&lt;ol&gt;&lt;li&gt;&lt;p&gt;This address SHOULD contain zero or one [0..1] state, which SHALL be selected from ValueSet StateValueSet urn:oid:2.16.840.1.113883.3.88.12.80.1 DYNAMIC (CONF:1150-302).&lt;/p&gt;&lt;/li&gt;&lt;/ol&gt;&lt;ol&gt;&lt;li&gt;&lt;p&gt;This address SHOULD contain zero or one [0..1] zip, which SHOULD be selected from ValueSet PostalCode urn:oid:2.16.840.1.113883.3.88.12.80.2 DYNAMIC (CONF:1150-303).&lt;/p&gt;&lt;/li&gt;&lt;/ol&gt;&lt;ol&gt;&lt;li&gt;&lt;p&gt;This address SHOULD contain zero or one [0..1] country, which SHALL be selected from ValueSet Country urn:oid:2.16.840.1.113883.3.88.12.80.63 (CONF:1150-304).&lt;/p&gt;&lt;/li&gt;&lt;/ol&gt;&lt;/li&gt;&lt;li xmlns=&quot;http://www.w3.org/1999/xhtml&quot;&gt;&lt;p&gt;MAY contain zero or one [0..1] partOf (CONF:X-X).&lt;/p&gt;&lt;/li&gt;&lt;li xmlns=&quot;http://www.w3.org/1999/xhtml&quot;&gt;&lt;p&gt;MAY contain zero or more [0..*] contact (CONF:X-X).&lt;/p&gt;&lt;/li&gt;&lt;li xmlns=&quot;http://www.w3.org/1999/xhtml&quot;&gt;&lt;p&gt;MAY contain zero or more [0..*] location (CONF:X-X).&lt;/p&gt;&lt;/li&gt;&lt;li xmlns=&quot;http://www.w3.org/1999/xhtml&quot;&gt;&lt;p&gt;MAY contain zero or one [0..1] active (CONF:X-X).&lt;/p&gt;&lt;/li&gt;&lt;/xhtml:ol&gt;&lt;/xhtml:div&gt;</div>"
        },
        "identifier": "http://www.lantanagroup.com/camara/fhir/us-realm-custodian",
        "name": "US Realm Custodian",
        "publisher": "LCG",
        "status": "draft",
        "fhirVersion": "0.8",
        "structure": [
          {
            "type": "Organization",
            "element": [
              {
                "path": "Organization.id",
                "definition": {
                  "short": "id",
                  "formal": "id",
                  "min": 0,
                  "max": "1",
                  "constraint": [
                    {
                      "key": "0",
                      "name": "id",
                      "severity": "warning",
                      "human": "MAY contain zero or one [0..1] id (CONF:X-X).",
                      "xpath": "count(Organization/id)>=0 and count(Organization/id)<=1"
                    }
                  ],
                  "mustSupport": false,
                  "isModifier": false
                }
              },
              {
                "path": "Organization.extension",
                "definition": {
                  "short": "extension",
                  "formal": "extension",
                  "min": 0,
                  "max": "*",
                  "constraint": [
                    {
                      "key": "0",
                      "name": "extension",
                      "severity": "warning",
                      "human": "MAY contain zero or more [0..*] extension (CONF:X-X).",
                      "xpath": "count(Organization/extension)>=0"
                    }
                  ],
                  "mustSupport": false,
                  "isModifier": false
                }
              },
              {
                "path": "Organization.modifierExtension",
                "definition": {
                  "short": "modifierExtension",
                  "formal": "modifierExtension",
                  "min": 0,
                  "max": "*",
                  "constraint": [
                    {
                      "key": "0",
                      "name": "modifierExtension",
                      "severity": "warning",
                      "human": "MAY contain zero or more [0..*] modifierExtension (CONF:X-X).",
                      "xpath": "count(Organization/modifierExtension)>=0"
                    }
                  ],
                  "mustSupport": false,
                  "isModifier": false
                }
              },
              {
                "path": "Organization.language",
                "definition": {
                  "short": "language",
                  "formal": "language",
                  "min": 0,
                  "max": "1",
                  "constraint": [
                    {
                      "key": "0",
                      "name": "language",
                      "severity": "warning",
                      "human": "MAY contain zero or one [0..1] language (CONF:X-X).",
                      "xpath": "count(Organization/language)>=0 and count(Organization/language)<=1"
                    }
                  ],
                  "mustSupport": false,
                  "isModifier": false
                }
              },
              {
                "path": "Organization.text",
                "definition": {
                  "short": "text",
                  "formal": "text",
                  "min": 0,
                  "max": "1",
                  "constraint": [
                    {
                      "key": "0",
                      "name": "text",
                      "severity": "warning",
                      "human": "MAY contain zero or one [0..1] text (CONF:X-X).",
                      "xpath": "count(Organization/text)>=0 and count(Organization/text)<=1"
                    }
                  ],
                  "mustSupport": false,
                  "isModifier": false
                }
              },
              {
                "path": "Organization.contained",
                "definition": {
                  "short": "contained",
                  "formal": "contained",
                  "min": 0,
                  "max": "*",
                  "constraint": [
                    {
                      "key": "0",
                      "name": "contained",
                      "severity": "warning",
                      "human": "MAY contain zero or more [0..*] contained (CONF:X-X).",
                      "xpath": "count(Organization/contained)>=0"
                    }
                  ],
                  "mustSupport": false,
                  "isModifier": false
                }
              },
              {
                "path": "Organization.identifier",
                "definition": {
                  "short": "identifier",
                  "formal": "identifier",
                  "min": 1,
                  "max": "*",
                  "constraint": [
                    {
                      "key": "294",
                      "name": "identifier",
                      "severity": "error",
                      "human": "SHALL contain at least one [1..*] identifier (CONF:1150-294).",
                      "xpath": "count(Organization/identifier)>=1"
                    }
                  ],
                  "mustSupport": true,
                  "isModifier": false
                }
              },
              {
                "path": "Organization.identifier.system",
                "definition": {
                  "short": "system",
                  "formal": "system",
                  "min": 1,
                  "max": "1",
                  "constraint": [
                    {
                      "key": "738",
                      "name": "system",
                      "severity": "error",
                      "human": "Such identifiers SHALL contain exactly one [1..1] system (ValueSet: Organization Identifier Types urn:oid:2.16.840.1.113883.3.117.3.1 STATIC 2015-02-25) (CONF:1150-738).",
                      "xpath": "count(Organization/identifier/system)>=1 and count(Organization/identifier/system)<=1"
                    }
                  ],
                  "mustSupport": true,
                  "isModifier": false,
                  "binding": {
                    "name": "Organization Identifier Types",
                    "isExtensible": false,
                    "referenceUri": "urn:oid:2.16.840.1.113883.3.117.3.1"
                  }
                }
              },
              {
                "path": "Organization.name",
                "definition": {
                  "short": "name",
                  "formal": "name",
                  "min": 1,
                  "max": "1",
                  "constraint": [
                    {
                      "key": "295",
                      "name": "name",
                      "severity": "error",
                      "human": "SHALL contain exactly one [1..1] name (CONF:1150-295).",
                      "xpath": "count(Organization/name)>=1 and count(Organization/name)<=1"
                    }
                  ],
                  "mustSupport": true,
                  "isModifier": false
                }
              },
              {
                "path": "Organization.type",
                "definition": {
                  "short": "type",
                  "formal": "type",
                  "min": 0,
                  "max": "1",
                  "constraint": [
                    {
                      "key": "0",
                      "name": "type",
                      "severity": "warning",
                      "human": "MAY contain zero or one [0..1] type (CONF:X-X).",
                      "xpath": "count(Organization/type)>=0 and count(Organization/type)<=1"
                    }
                  ],
                  "mustSupport": false,
                  "isModifier": false
                }
              },
              {
                "path": "Organization.telecom",
                "definition": {
                  "short": "telecom",
                  "formal": "telecom",
                  "min": 1,
                  "max": "1",
                  "constraint": [
                    {
                      "key": "296",
                      "name": "telecom",
                      "severity": "error",
                      "human": "SHALL contain exactly one [1..1] telecom (CONF:1150-296).",
                      "xpath": "count(Organization/telecom)>=1 and count(Organization/telecom)<=1"
                    }
                  ],
                  "mustSupport": true,
                  "isModifier": false
                }
              },
              {
                "path": "Organization.telecom.value",
                "definition": {
                  "short": "value",
                  "formal": "value",
                  "min": 0,
                  "max": "1",
                  "constraint": [
                    {
                      "key": "1452",
                      "name": "value",
                      "severity": "warning",
                      "human": "This telecom SHOULD contain zero or one [0..1] value (CONF:1150-1452).",
                      "xpath": "count(Organization/telecom/value)>=0 and count(Organization/telecom/value)<=1"
                    }
                  ],
                  "mustSupport": true,
                  "isModifier": false
                }
              },
              {
                "path": "Organization.telecom.use",
                "definition": {
                  "short": "use",
                  "formal": "use",
                  "min": 0,
                  "max": "1",
                  "constraint": [
                    {
                      "key": "297",
                      "name": "use",
                      "severity": "warning",
                      "human": "This telecom SHOULD contain zero or one [0..1] use, which SHALL be selected from ValueSet Telecom Use (US Realm Header) urn:oid:2.16.840.1.113883.11.20.9.20 DYNAMIC (CONF:1150-297).",
                      "xpath": "count(Organization/telecom/use)>=0 and count(Organization/telecom/use)<=1"
                    }
                  ],
                  "mustSupport": true,
                  "isModifier": false,
                  "binding": {
                    "name": "Telecom Use (US Realm Header)",
                    "isExtensible": true,
                    "referenceUri": "urn:oid:2.16.840.1.113883.11.20.9.20"
                  }
                }
              },
              {
                "path": "Organization.address",
                "definition": {
                  "short": "address",
                  "formal": "address",
                  "min": 1,
                  "max": "1",
                  "constraint": [
                    {
                      "key": "298",
                      "name": "address",
                      "severity": "error",
                      "human": "SHALL contain exactly one [1..1] address (CONF:1150-298).",
                      "xpath": "count(Organization/address)>=1 and count(Organization/address)<=1"
                    }
                  ],
                  "mustSupport": true,
                  "isModifier": false
                }
              },
              {
                "path": "Organization.address.use",
                "definition": {
                  "short": "use",
                  "formal": "use",
                  "min": 0,
                  "max": "1",
                  "constraint": [
                    {
                      "key": "299",
                      "name": "use",
                      "severity": "warning",
                      "human": "This address SHOULD contain zero or one [0..1] use (CONF:1150-299).",
                      "xpath": "count(Organization/address/use)>=0 and count(Organization/address/use)<=1"
                    }
                  ],
                  "mustSupport": true,
                  "isModifier": false
                }
              },
              {
                "path": "Organization.address.line",
                "definition": {
                  "short": "line",
                  "formal": "C-CDA R1.1: *SHALL* contain exactly one [1..1] streetAddressLine (CONF:7291).\nBecause nullFlavor is allowed in C-CDA streetAddressLine, FHIR profile line is *SHOULD* 0..1 - transforms between CDA and FHIR will need to take nullFlavor into account.",
                  "min": 0,
                  "max": "1",
                  "constraint": [
                    {
                      "key": "300",
                      "name": "line",
                      "severity": "warning",
                      "human": "This address SHOULD contain zero or one [0..1] line (CONF:1150-300).",
                      "xpath": "count(Organization/address/line)>=0 and count(Organization/address/line)<=1"
                    }
                  ],
                  "mustSupport": true,
                  "isModifier": false
                }
              },
              {
                "path": "Organization.address.city",
                "definition": {
                  "short": "city",
                  "formal": "C-CDA R1.1: *SHALL* contain exactly one [1..1] city (CONF:7292).\nBecause nullFlavor is allowed in C-CDA city, FHIR profile city is *SHOULD* 0..1 - transforms between CDA and FHIR will need to take nullFlavor into account.",
                  "min": 0,
                  "max": "1",
                  "constraint": [
                    {
                      "key": "301",
                      "name": "city",
                      "severity": "warning",
                      "human": "This address SHOULD contain zero or one [0..1] city (CONF:1150-301).",
                      "xpath": "count(Organization/address/city)>=0 and count(Organization/address/city)<=1"
                    }
                  ],
                  "mustSupport": true,
                  "isModifier": false
                }
              },
              {
                "path": "Organization.address.state",
                "definition": {
                  "short": "state",
                  "formal": "C-CDA R1.1: State is required if the country is US. If country is not specified, it's assumed to be US. If country is something other than US, the state *MAY* be present but *MAY* be bound to different vocabularies (CONF:10024)",
                  "min": 0,
                  "max": "1",
                  "constraint": [
                    {
                      "key": "302",
                      "name": "state",
                      "severity": "warning",
                      "human": "This address SHOULD contain zero or one [0..1] state, which SHALL be selected from ValueSet StateValueSet urn:oid:2.16.840.1.113883.3.88.12.80.1 DYNAMIC (CONF:1150-302).",
                      "xpath": "count(Organization/address/state)>=0 and count(Organization/address/state)<=1"
                    }
                  ],
                  "mustSupport": true,
                  "isModifier": false,
                  "binding": {
                    "name": "StateValueSet",
                    "isExtensible": true,
                    "referenceUri": "urn:oid:2.16.840.1.113883.3.88.12.80.1"
                  }
                }
              },
              {
                "path": "Organization.address.zip",
                "definition": {
                  "short": "zip",
                  "formal": "C-CDA R1.1: PostalCode is required if the country is US. If country is not specified, it's assumed to be US. If country is something other than US, the postalCode *MAY* be present but *MAY* be bound to different vocabularies (CONF:10025)",
                  "min": 0,
                  "max": "1",
                  "constraint": [
                    {
                      "key": "303",
                      "name": "zip",
                      "severity": "warning",
                      "human": "This address SHOULD contain zero or one [0..1] zip, which SHOULD be selected from ValueSet PostalCode urn:oid:2.16.840.1.113883.3.88.12.80.2 DYNAMIC (CONF:1150-303).",
                      "xpath": "count(Organization/address/zip)>=0 and count(Organization/address/zip)<=1"
                    }
                  ],
                  "mustSupport": true,
                  "isModifier": false,
                  "binding": {
                    "name": "PostalCode",
                    "isExtensible": true,
                    "referenceUri": "urn:oid:2.16.840.1.113883.3.88.12.80.2"
                  }
                }
              },
              {
                "path": "Organization.address.country",
                "definition": {
                  "short": "country",
                  "formal": "country",
                  "min": 0,
                  "max": "1",
                  "constraint": [
                    {
                      "key": "304",
                      "name": "country",
                      "severity": "warning",
                      "human": "This address SHOULD contain zero or one [0..1] country, which SHALL be selected from ValueSet Country urn:oid:2.16.840.1.113883.3.88.12.80.63 (CONF:1150-304).",
                      "xpath": "count(Organization/address/country)>=0 and count(Organization/address/country)<=1"
                    }
                  ],
                  "mustSupport": true,
                  "isModifier": false,
                  "binding": {
                    "name": "Country",
                    "isExtensible": true,
                    "referenceUri": "urn:oid:2.16.840.1.113883.3.88.12.80.63"
                  }
                }
              },
              {
                "path": "Organization.partOf",
                "definition": {
                  "short": "partOf",
                  "formal": "partOf",
                  "min": 0,
                  "max": "1",
                  "constraint": [
                    {
                      "key": "0",
                      "name": "partOf",
                      "severity": "warning",
                      "human": "MAY contain zero or one [0..1] partOf (CONF:X-X).",
                      "xpath": "count(Organization/partOf)>=0 and count(Organization/partOf)<=1"
                    }
                  ],
                  "mustSupport": false,
                  "isModifier": false
                }
              },
              {
                "path": "Organization.contact",
                "definition": {
                  "short": "contact",
                  "formal": "contact",
                  "min": 0,
                  "max": "*",
                  "constraint": [
                    {
                      "key": "0",
                      "name": "contact",
                      "severity": "warning",
                      "human": "MAY contain zero or more [0..*] contact (CONF:X-X).",
                      "xpath": "count(Organization/contact)>=0"
                    }
                  ],
                  "mustSupport": false,
                  "isModifier": false
                }
              },
              {
                "path": "Organization.location",
                "definition": {
                  "short": "location",
                  "formal": "location",
                  "min": 0,
                  "max": "*",
                  "constraint": [
                    {
                      "key": "0",
                      "name": "location",
                      "severity": "warning",
                      "human": "MAY contain zero or more [0..*] location (CONF:X-X).",
                      "xpath": "count(Organization/location)>=0"
                    }
                  ],
                  "mustSupport": false,
                  "isModifier": false
                }
              },
              {
                "path": "Organization.active",
                "definition": {
                  "short": "active",
                  "formal": "active",
                  "min": 0,
                  "max": "1",
                  "constraint": [
                    {
                      "key": "0",
                      "name": "active",
                      "severity": "warning",
                      "human": "MAY contain zero or one [0..1] active (CONF:X-X).",
                      "xpath": "count(Organization/active)>=0 and count(Organization/active)<=1"
                    }
                  ],
                  "mustSupport": false,
                  "isModifier": false
                }
              }
            ]
          }
        ]
      }
    }
  ]
}